"IDSample","AccX","AccY","AccZ"
1,0.036,0.018,0.478
2,0.041,0.02,0.653
3,0.038,0.021,0.787
4,0.033,0.021,0.881
5,0.032,0.024,0.947
6,0.04,0.031,0.997
7,0.059,0.041,1.042
8,0.084,0.05,1.089
9,0.105,0.054,1.137
10,0.119,0.05,1.182
11,0.123,0.041,1.215
12,0.122,0.029,1.228
13,0.119,0.017,1.22
14,0.117,0.009,1.195
15,0.117,0.005,1.157
16,0.117,0.004,1.116
17,0.117,0.006,1.077
18,0.117,0.012,1.044
19,0.119,0.02,1.02
20,0.122,0.029,1.005
21,0.126,0.037,1
22,0.126,0.043,1.004
23,0.12,0.045,1.017
24,0.106,0.041,1.039
25,0.086,0.033,1.064
26,0.067,0.023,1.088
27,0.055,0.016,1.108
28,0.058,0.018,1.123
29,0.073,0.028,1.133
30,0.093,0.042,1.143
31,0.109,0.053,1.153
32,0.111,0.057,1.162
33,0.097,0.052,1.167
34,0.074,0.042,1.16
35,0.052,0.032,1.139
36,0.045,0.025,1.105
37,0.058,0.022,1.065
38,0.087,0.024,1.029
39,0.122,0.032,1.006
40,0.15,0.046,1.001
41,0.163,0.063,1.014
42,0.163,0.077,1.037
43,0.157,0.084,1.061
44,0.156,0.082,1.079
45,0.164,0.073,1.085
46,0.18,0.06,1.077
47,0.197,0.05,1.06
48,0.207,0.044,1.036
49,0.204,0.042,1.008
50,0.191,0.045,0.977
51,0.172,0.051,0.942
52,0.154,0.063,0.908
53,0.141,0.077,0.878
54,0.133,0.089,0.859
55,0.126,0.09,0.852
56,0.116,0.076,0.86
57,0.097,0.049,0.879
58,0.073,0.018,0.902
59,0.048,-0.007,0.923
60,0.03,-0.015,0.938
61,0.025,-0.006,0.943
62,0.034,0.015,0.937
63,0.056,0.038,0.92
64,0.083,0.054,0.894
65,0.107,0.061,0.864
66,0.122,0.059,0.835
67,0.125,0.051,0.812
68,0.119,0.043,0.799
69,0.106,0.041,0.796
70,0.095,0.047,0.802
71,0.089,0.061,0.814
72,0.089,0.082,0.83
73,0.091,0.102,0.849
74,0.09,0.117,0.868
75,0.082,0.122,0.887
76,0.067,0.117,0.903
77,0.049,0.103,0.914
78,0.035,0.084,0.919
79,0.033,0.063,0.917
80,0.047,0.045,0.907
81,0.074,0.033,0.892
82,0.109,0.028,0.877
83,0.142,0.031,0.866
84,0.162,0.039,0.864
85,0.163,0.05,0.869
86,0.145,0.062,0.881
87,0.115,0.073,0.897
88,0.082,0.083,0.915
89,0.057,0.092,0.932
90,0.044,0.099,0.947
91,0.043,0.104,0.961
92,0.051,0.11,0.969
93,0.064,0.115,0.967
94,0.078,0.12,0.952
95,0.092,0.123,0.924
96,0.106,0.122,0.888
97,0.119,0.117,0.854
98,0.127,0.108,0.832
99,0.127,0.098,0.83
100,0.12,0.092,0.853
101,0.106,0.09,0.899
102,0.093,0.094,0.958
103,0.088,0.102,1.022
104,0.094,0.111,1.082
105,0.112,0.116,1.129
106,0.134,0.113,1.16
107,0.152,0.102,1.173
108,0.16,0.086,1.17
109,0.155,0.071,1.155
110,0.138,0.063,1.131
111,0.113,0.065,1.102
112,0.09,0.074,1.072
113,0.074,0.085,1.042
114,0.071,0.091,1.016
115,0.08,0.089,0.995
116,0.097,0.078,0.984
117,0.112,0.061,0.983
118,0.12,0.043,0.993
119,0.12,0.027,1.01
120,0.114,0.017,1.031
121,0.111,0.016,1.052
122,0.116,0.025,1.071
123,0.13,0.039,1.088
124,0.147,0.053,1.105
125,0.159,0.061,1.121
126,0.158,0.058,1.138
127,0.145,0.046,1.15
128,0.123,0.03,1.155
129,0.103,0.016,1.15
130,0.094,0.01,1.132
131,0.097,0.012,1.105
132,0.109,0.018,1.074
133,0.12,0.025,1.047
134,0.124,0.031,1.03
135,0.117,0.035,1.026
136,0.098,0.038,1.035
137,0.073,0.038,1.056
138,0.049,0.034,1.083
139,0.032,0.025,1.111
140,0.025,0.012,1.133
141,0.03,0,1.141
142,0.048,-0.007,1.132
143,0.075,-0.004,1.104
144,0.106,0.007,1.061
145,0.133,0.024,1.01
146,0.147,0.04,0.961
147,0.143,0.048,0.92
148,0.122,0.045,0.892
149,0.092,0.033,0.874
150,0.061,0.019,0.864
151,0.038,0.008,0.86
152,0.028,0.005,0.862
153,0.029,0.01,0.87
154,0.033,0.02,0.885
155,0.034,0.031,0.907
156,0.028,0.04,0.931
157,0.019,0.046,0.952
158,0.009,0.05,0.967
159,0.005,0.048,0.974
160,0.009,0.041,0.974
161,0.021,0.03,0.97
162,0.037,0.019,0.961
163,0.054,0.015,0.952
164,0.068,0.022,0.945
165,0.079,0.037,0.942
166,0.085,0.054,0.945
167,0.089,0.068,0.954
168,0.09,0.074,0.969
169,0.088,0.072,0.987
170,0.084,0.067,1.006
171,0.077,0.063,1.02
172,0.072,0.061,1.026
173,0.071,0.062,1.02
174,0.078,0.065,1.002
175,0.093,0.07,0.973
176,0.113,0.077,0.938
177,0.133,0.089,0.904
178,0.148,0.104,0.876
179,0.152,0.12,0.858
180,0.145,0.131,0.851
181,0.132,0.134,0.853
182,0.119,0.128,0.861
183,0.111,0.118,0.871
184,0.111,0.108,0.884
185,0.115,0.102,0.898
186,0.12,0.098,0.912
187,0.122,0.096,0.926
188,0.117,0.092,0.943
189,0.106,0.087,0.962
190,0.091,0.083,0.982
191,0.077,0.08,1.003
192,0.066,0.081,1.023
193,0.059,0.083,1.04
194,0.056,0.086,1.054
195,0.058,0.09,1.064
196,0.065,0.094,1.069
197,0.076,0.098,1.07
198,0.089,0.1,1.064
199,0.102,0.1,1.05
200,0.113,0.099,1.027
201,0.12,0.095,0.998
202,0.125,0.091,0.969
203,0.126,0.09,0.944
204,0.121,0.094,0.929
205,0.112,0.101,0.925
206,0.1,0.109,0.932
207,0.088,0.114,0.948
208,0.081,0.113,0.966
209,0.081,0.107,0.98
210,0.089,0.097,0.985
211,0.106,0.085,0.975
212,0.129,0.074,0.953
213,0.157,0.067,0.922
214,0.185,0.065,0.89
215,0.204,0.071,0.864
216,0.21,0.083,0.85
217,0.2,0.099,0.851
218,0.174,0.113,0.866
219,0.137,0.119,0.892
220,0.096,0.115,0.923
221,0.058,0.104,0.952
222,0.027,0.092,0.973
223,0.005,0.083,0.985
224,-0.007,0.077,0.986
225,-0.01,0.073,0.976
226,-0.006,0.068,0.956
227,0.006,0.062,0.932
228,0.024,0.055,0.907
229,0.044,0.051,0.887
230,0.061,0.051,0.88
231,0.071,0.053,0.889
232,0.071,0.056,0.914
233,0.058,0.057,0.949
234,0.035,0.057,0.987
235,0.008,0.06,1.016
236,-0.013,0.066,1.031
237,-0.019,0.072,1.026
238,-0.006,0.078,1.002
239,0.023,0.081,0.966
240,0.058,0.079,0.923
241,0.088,0.072,0.882
242,0.104,0.06,0.849
243,0.105,0.048,0.826
244,0.095,0.036,0.811
245,0.081,0.027,0.804
246,0.071,0.023,0.804
247,0.066,0.022,0.812
248,0.063,0.021,0.83
249,0.059,0.017,0.858
250,0.05,0.01,0.893
251,0.04,0.001,0.929
252,0.034,-0.005,0.962
253,0.036,-0.006,0.987
254,0.047,-0.004,1.004
255,0.062,-0.001,1.014
256,0.075,0.002,1.021
257,0.08,0.004,1.025
258,0.073,0.004,1.028
259,0.057,0.006,1.03
260,0.039,0.011,1.032
261,0.027,0.021,1.036
262,0.025,0.036,1.042
263,0.031,0.052,1.053
264,0.042,0.064,1.07
265,0.05,0.067,1.091
266,0.053,0.06,1.112
267,0.052,0.045,1.13
268,0.048,0.027,1.141
269,0.047,0.011,1.145
270,0.049,0,1.141
271,0.056,-0.004,1.132
272,0.067,-0.002,1.119
273,0.081,0.003,1.103
274,0.097,0.009,1.086
275,0.111,0.016,1.067
276,0.122,0.024,1.05
277,0.127,0.032,1.035
278,0.123,0.038,1.025
279,0.111,0.042,1.017
280,0.091,0.045,1.01
281,0.068,0.046,0.998
282,0.049,0.046,0.978
283,0.038,0.044,0.95
284,0.039,0.04,0.916
285,0.048,0.036,0.885
286,0.06,0.034,0.863
287,0.066,0.035,0.855
288,0.064,0.042,0.863
289,0.054,0.051,0.885
290,0.04,0.063,0.917
291,0.03,0.071,0.95
292,0.026,0.075,0.98
293,0.028,0.072,1.001
294,0.035,0.063,1.01
295,0.044,0.053,1.005
296,0.053,0.046,0.989
297,0.06,0.043,0.965
298,0.063,0.044,0.941
299,0.059,0.046,0.92
300,0.049,0.045,0.907
301,0.035,0.038,0.904
302,0.023,0.027,0.909
303,0.018,0.015,0.919
304,0.022,0.006,0.928
305,0.033,0.005,0.934
306,0.046,0.012,0.934
307,0.058,0.026,0.926
308,0.064,0.041,0.91
309,0.067,0.054,0.887
310,0.068,0.062,0.859
311,0.072,0.064,0.829
312,0.079,0.062,0.801
313,0.086,0.059,0.782
314,0.092,0.059,0.776
315,0.093,0.062,0.786
316,0.09,0.067,0.81
317,0.084,0.071,0.843
318,0.081,0.072,0.88
319,0.084,0.069,0.914
320,0.091,0.063,0.938
321,0.101,0.057,0.949
322,0.11,0.055,0.946
323,0.113,0.059,0.931
324,0.108,0.068,0.911
325,0.093,0.08,0.89
326,0.07,0.091,0.878
327,0.043,0.095,0.88
328,0.017,0.093,0.896
329,-0.001,0.085,0.924
330,-0.004,0.076,0.959
331,0.01,0.07,0.996
332,0.041,0.067,1.028
333,0.081,0.065,1.053
334,0.12,0.059,1.068
335,0.15,0.05,1.075
336,0.167,0.038,1.075
337,0.17,0.027,1.071
338,0.165,0.021,1.067
339,0.158,0.023,1.064
340,0.151,0.03,1.061
341,0.143,0.039,1.058
342,0.132,0.045,1.056
343,0.116,0.044,1.054
344,0.096,0.037,1.051
345,0.074,0.025,1.044
346,0.055,0.012,1.034
347,0.041,0.001,1.019
348,0.032,-0.007,1.004
349,0.03,-0.013,0.99
350,0.034,-0.015,0.978
351,0.044,-0.012,0.97
352,0.06,-0.001,0.969
353,0.076,0.015,0.978
354,0.088,0.033,0.998
355,0.091,0.045,1.027
356,0.085,0.048,1.06
357,0.072,0.043,1.091
358,0.061,0.032,1.113
359,0.058,0.022,1.121
360,0.068,0.013,1.117
361,0.088,0.005,1.103
362,0.109,-0.004,1.085
363,0.124,-0.011,1.067
364,0.126,-0.015,1.053
365,0.117,-0.014,1.047
366,0.1,-0.009,1.051
367,0.083,-0.004,1.061
368,0.072,0,1.075
369,0.068,0.003,1.088
370,0.069,0.005,1.095
371,0.072,0.006,1.093
372,0.076,0.008,1.077
373,0.081,0.01,1.043
374,0.087,0.011,0.994
375,0.092,0.013,0.934
376,0.093,0.017,0.872
377,0.089,0.022,0.818
378,0.079,0.026,0.781
379,0.066,0.03,0.762
380,0.053,0.033,0.762
381,0.042,0.038,0.779
382,0.034,0.048,0.811
383,0.028,0.059,0.855
384,0.022,0.066,0.907
385,0.014,0.065,0.959
386,0.005,0.054,1.001
387,-0.001,0.035,1.027
388,0.003,0.013,1.032
389,0.022,-0.005,1.016
390,0.053,-0.013,0.986
391,0.093,-0.012,0.951
392,0.13,-0.002,0.919
393,0.156,0.016,0.9
394,0.166,0.038,0.897
395,0.157,0.06,0.913
396,0.136,0.079,0.944
397,0.108,0.09,0.985
398,0.081,0.093,1.031
399,0.06,0.088,1.076
400,0.047,0.075,1.115
401,0.043,0.06,1.145
402,0.049,0.046,1.163
403,0.067,0.039,1.167
404,0.096,0.04,1.157
405,0.138,0.044,1.135
406,0.186,0.047,1.106
407,0.232,0.046,1.075
408,0.268,0.042,1.045
409,0.286,0.039,1.017
410,0.283,0.04,0.995
411,0.258,0.047,0.977
412,0.218,0.058,0.966
413,0.169,0.07,0.962
414,0.121,0.081,0.963
415,0.079,0.093,0.969
416,0.049,0.103,0.977
417,0.03,0.109,0.987
418,0.021,0.108,1.002
419,0.022,0.098,1.022
420,0.029,0.081,1.046
421,0.043,0.06,1.073
422,0.061,0.041,1.099
423,0.081,0.029,1.121
424,0.101,0.028,1.134
425,0.117,0.037,1.14
426,0.126,0.052,1.139
427,0.126,0.07,1.132
428,0.122,0.087,1.121
429,0.116,0.101,1.106
430,0.113,0.111,1.09
431,0.114,0.114,1.076
432,0.118,0.112,1.065
433,0.121,0.106,1.059
434,0.122,0.097,1.054
435,0.119,0.088,1.047
436,0.113,0.079,1.036
437,0.108,0.072,1.021
438,0.102,0.064,1.002
439,0.095,0.055,0.983
440,0.086,0.045,0.966
441,0.076,0.036,0.954
442,0.067,0.031,0.946
443,0.061,0.033,0.943
444,0.058,0.041,0.943
445,0.057,0.054,0.945
446,0.056,0.064,0.948
447,0.054,0.065,0.951
448,0.049,0.055,0.953
449,0.042,0.035,0.956
450,0.037,0.011,0.96
451,0.036,-0.008,0.963
452,0.043,-0.015,0.963
453,0.057,-0.009,0.96
454,0.075,0.007,0.955
455,0.093,0.025,0.95
456,0.105,0.037,0.947
457,0.109,0.039,0.951
458,0.101,0.03,0.962
459,0.084,0.015,0.981
460,0.062,-0.001,1.007
461,0.043,-0.011,1.038
462,0.032,-0.014,1.071
463,0.034,-0.011,1.1
464,0.05,-0.005,1.12
465,0.08,-0.001,1.127
466,0.118,-0.001,1.12
467,0.157,-0.006,1.104
468,0.185,-0.014,1.085
469,0.194,-0.02,1.069
470,0.181,-0.02,1.061
471,0.15,-0.012,1.057
472,0.112,0.003,1.056
473,0.079,0.019,1.054
474,0.058,0.03,1.05
475,0.052,0.035,1.047
476,0.055,0.035,1.047
477,0.06,0.033,1.053
478,0.062,0.032,1.067
479,0.059,0.033,1.088
480,0.054,0.033,1.113
481,0.053,0.028,1.136
482,0.06,0.018,1.152
483,0.077,0.003,1.159
484,0.101,-0.011,1.154
485,0.127,-0.02,1.14
486,0.146,-0.023,1.122
487,0.151,-0.019,1.103
488,0.136,-0.009,1.088
489,0.104,0.004,1.078
490,0.061,0.019,1.07
491,0.02,0.032,1.065
492,-0.008,0.042,1.061
493,-0.018,0.047,1.058
494,-0.01,0.046,1.056
495,0.012,0.041,1.055
496,0.041,0.033,1.054
497,0.074,0.024,1.05
498,0.109,0.017,1.04
499,0.142,0.013,1.021
500,0.171,0.013,0.995
501,0.193,0.013,0.966
502,0.205,0.012,0.941
503,0.205,0.011,0.924
504,0.196,0.014,0.921
505,0.18,0.024,0.935
506,0.163,0.042,0.963
507,0.148,0.063,1
508,0.138,0.081,1.038
509,0.133,0.087,1.067
510,0.132,0.08,1.081
511,0.135,0.063,1.074
512,0.138,0.042,1.047
513,0.137,0.024,1.006
514,0.132,0.01,0.956
515,0.122,0.003,0.905
516,0.109,0.003,0.857
517,0.095,0.011,0.819
518,0.084,0.025,0.794
519,0.074,0.043,0.784
520,0.064,0.061,0.786
521,0.052,0.075,0.798
522,0.038,0.083,0.816
523,0.023,0.089,0.834
524,0.012,0.098,0.849
525,0.007,0.111,0.857
526,0.008,0.127,0.856
527,0.013,0.137,0.843
528,0.021,0.135,0.819
529,0.031,0.122,0.786
530,0.044,0.102,0.748
531,0.057,0.08,0.714
532,0.07,0.063,0.691
533,0.079,0.052,0.685
534,0.083,0.044,0.7
535,0.081,0.038,0.734
536,0.079,0.035,0.78
537,0.079,0.038,0.832
538,0.086,0.049,0.882
539,0.099,0.066,0.927
540,0.116,0.081,0.961
541,0.132,0.09,0.978
542,0.141,0.09,0.977
543,0.14,0.085,0.957
544,0.131,0.079,0.918
545,0.115,0.077,0.865
546,0.096,0.077,0.805
547,0.076,0.077,0.748
548,0.057,0.073,0.705
549,0.037,0.065,0.683
550,0.015,0.055,0.688
551,-0.009,0.046,0.722
552,-0.032,0.041,0.781
553,-0.048,0.037,0.858
554,-0.053,0.031,0.942
555,-0.04,0.02,1.024
556,-0.011,0.006,1.096
557,0.03,-0.007,1.151
558,0.073,-0.012,1.184
559,0.109,-0.008,1.191
560,0.132,0.004,1.17
561,0.139,0.018,1.127
562,0.131,0.029,1.07
563,0.111,0.033,1.01
564,0.084,0.031,0.957
565,0.055,0.024,0.919
566,0.029,0.013,0.897
567,0.013,0.002,0.895
568,0.01,-0.008,0.909
569,0.022,-0.015,0.935
570,0.047,-0.017,0.967
571,0.078,-0.015,0.998
572,0.109,-0.01,1.025
573,0.132,-0.006,1.043
574,0.142,-0.004,1.054
575,0.137,-0.004,1.058
576,0.119,-0.003,1.058
577,0.089,0.002,1.054
578,0.055,0.015,1.048
579,0.02,0.032,1.04
580,-0.009,0.05,1.031
581,-0.029,0.06,1.02
582,-0.039,0.06,1.004
583,-0.035,0.047,0.982
584,-0.019,0.026,0.956
585,0.009,0.001,0.93
586,0.043,-0.023,0.914
587,0.075,-0.042,0.913
588,0.094,-0.054,0.933
589,0.095,-0.059,0.974
590,0.077,-0.057,1.029
591,0.048,-0.049,1.09
592,0.02,-0.037,1.146
593,0.003,-0.024,1.185
594,0.006,-0.011,1.2
595,0.027,0.003,1.187
596,0.061,0.016,1.147
597,0.095,0.025,1.085
598,0.122,0.026,1.007
599,0.136,0.019,0.922
600,0.135,0.004,0.836
601,0.124,-0.013,0.76
602,0.108,-0.026,0.703
603,0.09,-0.03,0.678
604,0.074,-0.026,0.693
605,0.058,-0.015,0.749
606,0.042,0.001,0.837
607,0.026,0.017,0.942
608,0.01,0.031,1.046
609,0,0.038,1.136
610,-0.002,0.033,1.197
611,0.007,0.017,1.224
612,0.026,-0.005,1.213
613,0.048,-0.029,1.164
614,0.071,-0.046,1.085
615,0.091,-0.054,0.987
616,0.11,-0.051,0.886
617,0.127,-0.039,0.8
618,0.139,-0.019,0.745
619,0.14,0.004,0.736
620,0.123,0.025,0.778
621,0.083,0.037,0.867
622,0.025,0.039,0.989
623,-0.037,0.032,1.119
624,-0.087,0.021,1.231
625,-0.11,0.013,1.306
626,-0.097,0.01,1.332
627,-0.055,0.011,1.31
628,0.005,0.015,1.246
629,0.066,0.018,1.149
630,0.113,0.02,1.032
631,0.139,0.02,0.91
632,0.144,0.021,0.794
633,0.134,0.025,0.699
634,0.116,0.032,0.634
635,0.092,0.044,0.607
636,0.064,0.062,0.62
637,0.031,0.087,0.667
638,-0.004,0.116,0.74
639,-0.036,0.145,0.824
640,-0.056,0.169,0.907
641,-0.056,0.18,0.975
642,-0.033,0.174,1.019
643,0.008,0.154,1.038
644,0.058,0.123,1.033
645,0.106,0.091,1.011
646,0.143,0.064,0.978
647,0.165,0.049,0.941
648,0.175,0.045,0.907
649,0.177,0.053,0.883
650,0.172,0.067,0.876
651,0.161,0.082,0.891
652,0.143,0.093,0.927
653,0.119,0.096,0.978
654,0.09,0.091,1.034
655,0.062,0.08,1.082
656,0.044,0.067,1.114
657,0.04,0.057,1.124
658,0.053,0.05,1.113
659,0.08,0.046,1.084
660,0.109,0.044,1.042
661,0.132,0.043,0.996
662,0.141,0.039,0.953
663,0.138,0.032,0.919
664,0.126,0.022,0.901
665,0.11,0.013,0.903
666,0.094,0.009,0.927
667,0.078,0.013,0.973
668,0.065,0.025,1.034
669,0.056,0.039,1.099
670,0.055,0.052,1.154
671,0.064,0.061,1.188
672,0.084,0.062,1.193
673,0.11,0.057,1.168
674,0.135,0.044,1.121
675,0.151,0.026,1.064
676,0.151,0.006,1.009
677,0.134,-0.01,0.964
678,0.102,-0.019,0.931
679,0.067,-0.017,0.91
680,0.038,-0.008,0.899
681,0.024,0.004,0.899
682,0.023,0.012,0.914
683,0.03,0.013,0.945
684,0.035,0.009,0.991
685,0.03,0,1.051
686,0.018,-0.013,1.116
687,0.006,-0.028,1.175
688,0.006,-0.042,1.216
689,0.026,-0.049,1.234
690,0.065,-0.043,1.228
691,0.114,-0.023,1.205
692,0.155,0.004,1.177
693,0.174,0.029,1.157
694,0.16,0.045,1.15
695,0.117,0.046,1.154
696,0.059,0.034,1.163
697,0.006,0.014,1.166
698,-0.024,-0.011,1.156
699,-0.022,-0.039,1.131
700,0.01,-0.066,1.093
701,0.061,-0.084,1.048
702,0.119,-0.087,1.006
703,0.17,-0.069,0.978
704,0.207,-0.033,0.968
705,0.225,0.01,0.979
706,0.225,0.048,1.004
707,0.21,0.071,1.033
708,0.187,0.08,1.054
709,0.162,0.079,1.058
710,0.14,0.079,1.046
711,0.123,0.084,1.023
712,0.108,0.094,0.997
713,0.09,0.106,0.973
714,0.067,0.115,0.956
715,0.043,0.117,0.947
716,0.025,0.109,0.945
717,0.024,0.087,0.95
718,0.046,0.052,0.965
719,0.087,0.007,0.992
720,0.134,-0.035,1.034
721,0.171,-0.062,1.092
722,0.185,-0.063,1.16
723,0.176,-0.036,1.23
724,0.152,0.01,1.288
725,0.127,0.063,1.322
726,0.115,0.107,1.324
727,0.118,0.136,1.294
728,0.135,0.149,1.239
729,0.155,0.151,1.171
730,0.168,0.147,1.101
731,0.169,0.146,1.037
732,0.156,0.148,0.981
733,0.135,0.151,0.936
734,0.112,0.151,0.905
735,0.096,0.143,0.89
736,0.089,0.126,0.894
737,0.092,0.103,0.915
738,0.1,0.077,0.948
739,0.109,0.052,0.989
740,0.116,0.03,1.032
741,0.12,0.009,1.075
742,0.123,-0.008,1.113
743,0.129,-0.022,1.143
744,0.138,-0.027,1.161
745,0.154,-0.023,1.165
746,0.172,-0.011,1.157
747,0.188,0.008,1.14
748,0.193,0.029,1.121
749,0.181,0.051,1.105
750,0.149,0.069,1.095
751,0.099,0.079,1.093
752,0.04,0.078,1.096
753,-0.013,0.064,1.097
754,-0.048,0.039,1.092
755,-0.055,0.009,1.079
756,-0.034,-0.018,1.058
757,0.011,-0.036,1.033
758,0.068,-0.044,1.01
759,0.122,-0.043,0.993
760,0.163,-0.04,0.986
761,0.182,-0.037,0.99
762,0.176,-0.037,1.003
763,0.152,-0.04,1.022
764,0.12,-0.045,1.042
765,0.092,-0.049,1.06
766,0.076,-0.048,1.073
767,0.074,-0.042,1.084
768,0.082,-0.03,1.093
769,0.093,-0.014,1.104
770,0.101,0.001,1.116
771,0.104,0.013,1.128
772,0.105,0.017,1.14
773,0.11,0.014,1.148
774,0.12,0.004,1.153
775,0.135,-0.009,1.153
776,0.151,-0.021,1.149
777,0.162,-0.028,1.139
778,0.165,-0.027,1.124
779,0.161,-0.019,1.102
780,0.154,-0.004,1.076
781,0.146,0.015,1.05
782,0.14,0.037,1.027
783,0.132,0.056,1.011
784,0.12,0.071,1.005
785,0.102,0.078,1.008
786,0.078,0.078,1.016
787,0.053,0.074,1.023
788,0.033,0.068,1.025
789,0.024,0.065,1.018
790,0.024,0.064,1.001
791,0.033,0.064,0.977
792,0.047,0.062,0.947
793,0.063,0.056,0.917
794,0.082,0.049,0.888
795,0.101,0.047,0.866
796,0.121,0.051,0.855
797,0.138,0.061,0.86
798,0.148,0.073,0.883
799,0.15,0.083,0.921
800,0.142,0.09,0.969
801,0.127,0.093,1.018
802,0.113,0.095,1.057
803,0.108,0.1,1.079
804,0.121,0.106,1.08
805,0.15,0.113,1.059
806,0.189,0.121,1.019
807,0.224,0.128,0.968
808,0.243,0.133,0.915
809,0.24,0.133,0.869
810,0.216,0.126,0.836
811,0.18,0.113,0.819
812,0.142,0.099,0.819
813,0.11,0.091,0.837
814,0.087,0.093,0.867
815,0.075,0.107,0.908
816,0.069,0.126,0.951
817,0.068,0.142,0.99
818,0.071,0.146,1.015
819,0.078,0.139,1.021
820,0.089,0.124,1.004
821,0.104,0.107,0.967
822,0.12,0.091,0.918
823,0.132,0.081,0.866
824,0.134,0.078,0.82
825,0.122,0.084,0.789
826,0.099,0.099,0.777
827,0.071,0.12,0.784
828,0.045,0.138,0.807
829,0.027,0.147,0.84
830,0.02,0.141,0.878
831,0.021,0.122,0.918
832,0.024,0.094,0.957
833,0.023,0.066,0.994
834,0.017,0.045,1.024
835,0.009,0.036,1.042
836,0.007,0.038,1.041
837,0.018,0.047,1.019
838,0.045,0.056,0.977
839,0.084,0.064,0.923
840,0.124,0.072,0.867
841,0.151,0.082,0.821
842,0.152,0.095,0.793
843,0.125,0.108,0.785
844,0.074,0.12,0.792
845,0.013,0.127,0.809
846,-0.044,0.129,0.826
847,-0.084,0.125,0.84
848,-0.102,0.115,0.85
849,-0.099,0.097,0.858
850,-0.079,0.074,0.864
851,-0.047,0.052,0.866
852,-0.006,0.038,0.863
853,0.041,0.039,0.853
854,0.092,0.053,0.84
855,0.142,0.073,0.826
856,0.181,0.09,0.816
857,0.203,0.098,0.814
858,0.201,0.099,0.823
859,0.178,0.098,0.844
860,0.14,0.099,0.875
861,0.098,0.103,0.91
862,0.061,0.108,0.945
863,0.037,0.112,0.977
864,0.025,0.112,1.005
865,0.025,0.104,1.03
866,0.03,0.09,1.051
867,0.037,0.072,1.065
868,0.045,0.053,1.067
869,0.055,0.035,1.055
870,0.066,0.024,1.029
871,0.078,0.019,0.993
872,0.086,0.021,0.952
873,0.087,0.03,0.915
874,0.075,0.045,0.89
875,0.05,0.062,0.881
876,0.017,0.078,0.889
877,-0.017,0.089,0.914
878,-0.043,0.093,0.952
879,-0.053,0.089,0.995
880,-0.045,0.081,1.04
881,-0.02,0.068,1.079
882,0.014,0.052,1.109
883,0.049,0.03,1.124
884,0.079,0.006,1.121
885,0.101,-0.017,1.101
886,0.117,-0.033,1.066
887,0.126,-0.037,1.023
888,0.13,-0.032,0.98
889,0.129,-0.022,0.945
890,0.122,-0.01,0.925
891,0.11,0,0.923
892,0.098,0.008,0.938
893,0.087,0.014,0.964
894,0.083,0.021,0.992
895,0.085,0.029,1.017
896,0.09,0.038,1.032
897,0.093,0.047,1.038
898,0.086,0.055,1.035
899,0.065,0.06,1.028
900,0.026,0.061,1.019
901,-0.024,0.057,1.007
902,-0.077,0.048,0.994
903,-0.122,0.035,0.978
904,-0.15,0.02,0.961
905,-0.155,0.003,0.944
906,-0.139,-0.016,0.928
907,-0.104,-0.037,0.916
908,-0.061,-0.056,0.908
909,-0.016,-0.069,0.906
910,0.024,-0.071,0.912
911,0.053,-0.061,0.928
912,0.072,-0.042,0.953
913,0.079,-0.021,0.985
914,0.077,-0.003,1.018
915,0.068,0.006,1.047
916,0.058,0.006,1.063
917,0.051,-0.002,1.062
918,0.052,-0.012,1.04
919,0.062,-0.018,0.997
920,0.078,-0.016,0.937
921,0.095,-0.006,0.868
922,0.105,0.009,0.801
923,0.103,0.023,0.744
924,0.088,0.032,0.705
925,0.062,0.033,0.69
926,0.029,0.031,0.7
927,-0.004,0.028,0.734
928,-0.034,0.03,0.791
929,-0.057,0.035,0.865
930,-0.073,0.04,0.946
931,-0.084,0.042,1.02
932,-0.088,0.04,1.076
933,-0.083,0.035,1.104
934,-0.066,0.029,1.103
935,-0.039,0.021,1.075
936,-0.006,0.012,1.031
937,0.022,0.004,0.984
938,0.036,0.003,0.946
939,0.03,0.009,0.929
940,0.009,0.023,0.936
941,-0.019,0.037,0.966
942,-0.037,0.044,1.013
943,-0.037,0.043,1.066
944,-0.015,0.035,1.117
945,0.023,0.026,1.157
946,0.068,0.017,1.181
947,0.112,0.01,1.185
948,0.15,0.005,1.167
949,0.179,0.004,1.127
950,0.201,0.009,1.071
951,0.216,0.019,1.01
952,0.225,0.031,0.959
953,0.225,0.041,0.934
954,0.213,0.048,0.939
955,0.187,0.052,0.971
956,0.153,0.059,1.023
957,0.115,0.068,1.082
958,0.079,0.077,1.14
959,0.048,0.078,1.186
960,0.022,0.065,1.214
961,-0.003,0.037,1.22
962,-0.025,-0.001,1.201
963,-0.043,-0.041,1.161
964,-0.048,-0.073,1.109
965,-0.035,-0.093,1.054
966,-0.004,-0.098,1.005
967,0.041,-0.09,0.97
968,0.089,-0.07,0.954
969,0.127,-0.044,0.958
970,0.147,-0.017,0.981
971,0.149,0.007,1.018
972,0.135,0.026,1.059
973,0.113,0.043,1.099
974,0.087,0.058,1.131
975,0.06,0.072,1.15
976,0.034,0.082,1.151
977,0.013,0.085,1.134
978,0.002,0.076,1.098
979,0.006,0.054,1.045
980,0.028,0.021,0.984
981,0.064,-0.019,0.925
982,0.108,-0.055,0.879
983,0.149,-0.08,0.856
984,0.178,-0.089,0.858
985,0.192,-0.079,0.881
986,0.192,-0.054,0.916
987,0.182,-0.021,0.954
988,0.168,0.015,0.987
989,0.154,0.046,1.014
990,0.136,0.069,1.032
991,0.11,0.083,1.044
992,0.073,0.088,1.044
993,0.031,0.088,1.03
994,-0.006,0.086,0.998
995,-0.025,0.085,0.948
996,-0.02,0.084,0.886
997,0.005,0.081,0.824
998,0.034,0.073,0.775
999,0.051,0.056,0.747
1000,0.044,0.032,0.746
1001,0.015,0.009,0.771
1002,-0.021,-0.004,0.815
1003,-0.043,-0.004,0.866
1004,-0.036,0.011,0.918
1005,0.001,0.036,0.965
1006,0.056,0.064,1.003
1007,0.108,0.089,1.031
1008,0.137,0.106,1.046
1009,0.137,0.113,1.043
1010,0.115,0.11,1.018
1011,0.086,0.096,0.969
1012,0.067,0.076,0.903
1013,0.066,0.055,0.829
1014,0.083,0.04,0.759
1015,0.11,0.036,0.706
1016,0.134,0.045,0.679
1017,0.147,0.066,0.682
1018,0.146,0.094,0.714
1019,0.133,0.123,0.77
1020,0.111,0.145,0.843
1021,0.085,0.155,0.925
1022,0.055,0.151,1.008
1023,0.025,0.135,1.08
1024,0.001,0.113,1.128
1025,-0.011,0.093,1.142
1026,-0.001,0.083,1.118
1027,0.03,0.086,1.062
1028,0.077,0.098,0.987
1029,0.126,0.112,0.91
1030,0.158,0.12,0.847
1031,0.163,0.122,0.809
1032,0.139,0.116,0.802
1033,0.096,0.107,0.826
1034,0.048,0.096,0.874
1035,0.013,0.086,0.936
1036,0,0.081,0.999
1037,0.011,0.081,1.052
1038,0.039,0.087,1.088
1039,0.075,0.098,1.105
1040,0.104,0.109,1.105
1041,0.12,0.113,1.093
1042,0.118,0.108,1.074
1043,0.103,0.092,1.052
1044,0.082,0.066,1.035
1045,0.066,0.036,1.027
1046,0.06,0.007,1.032
1047,0.065,-0.015,1.049
1048,0.079,-0.025,1.076
1049,0.1,-0.024,1.107
1050,0.125,-0.018,1.139
1051,0.15,-0.009,1.169
1052,0.172,-0.003,1.193
1053,0.189,-0.001,1.21
1054,0.196,-0.001,1.22
1055,0.187,-0.004,1.225
1056,0.163,-0.01,1.225
1057,0.127,-0.02,1.22
1058,0.087,-0.031,1.208
1059,0.055,-0.041,1.187
1060,0.039,-0.043,1.158
1061,0.042,-0.034,1.122
1062,0.057,-0.017,1.085
1063,0.075,0.003,1.053
1064,0.089,0.017,1.03
1065,0.092,0.023,1.022
1066,0.083,0.017,1.029
1067,0.066,0.003,1.048
1068,0.046,-0.018,1.074
1069,0.029,-0.044,1.099
1070,0.02,-0.076,1.119
1071,0.02,-0.11,1.129
1072,0.031,-0.141,1.125
1073,0.049,-0.161,1.108
1074,0.07,-0.162,1.084
1075,0.09,-0.143,1.059
1076,0.105,-0.108,1.043
1077,0.111,-0.066,1.041
1078,0.108,-0.029,1.053
1079,0.097,-0.003,1.074
1080,0.083,0.014,1.098
1081,0.074,0.025,1.117
1082,0.074,0.033,1.125
1083,0.083,0.042,1.119
1084,0.097,0.051,1.099
1085,0.11,0.063,1.067
1086,0.116,0.074,1.028
1087,0.113,0.084,0.987
1088,0.102,0.088,0.947
1089,0.085,0.082,0.911
1090,0.07,0.064,0.881
1091,0.059,0.037,0.859
1092,0.056,0.007,0.847
1093,0.061,-0.018,0.845
1094,0.071,-0.031,0.853
1095,0.084,-0.026,0.87
1096,0.097,-0.006,0.892
1097,0.109,0.028,0.916
1098,0.118,0.069,0.941
1099,0.122,0.109,0.965
1100,0.121,0.14,0.986
1101,0.116,0.157,1.003
1102,0.111,0.161,1.015
1103,0.107,0.154,1.019
1104,0.104,0.142,1.017
1105,0.103,0.129,1.009
1106,0.105,0.119,0.995
1107,0.112,0.109,0.97
1108,0.127,0.099,0.934
1109,0.152,0.086,0.888
1110,0.185,0.069,0.839
1111,0.221,0.051,0.801
1112,0.251,0.036,0.788
1113,0.266,0.031,0.811
1114,0.262,0.039,0.871
1115,0.238,0.062,0.962
1116,0.204,0.094,1.068
1117,0.174,0.127,1.172
1118,0.157,0.152,1.254
1119,0.161,0.164,1.3
1120,0.18,0.162,1.303
1121,0.202,0.15,1.262
1122,0.214,0.133,1.184
1123,0.206,0.118,1.079
1124,0.178,0.108,0.962
1125,0.139,0.107,0.847
1126,0.099,0.113,0.75
1127,0.07,0.123,0.685
1128,0.055,0.134,0.664
1129,0.053,0.141,0.689
1130,0.059,0.14,0.752
1131,0.07,0.129,0.838
1132,0.083,0.11,0.928
1133,0.099,0.088,1.006
1134,0.118,0.067,1.062
1135,0.138,0.054,1.093
1136,0.156,0.053,1.102
1137,0.166,0.066,1.094
1138,0.165,0.093,1.073
1139,0.154,0.127,1.045
1140,0.139,0.157,1.012
1141,0.127,0.17,0.98
1142,0.124,0.159,0.956
1143,0.128,0.125,0.942
1144,0.135,0.076,0.942
1145,0.141,0.025,0.954
1146,0.142,-0.014,0.974
1147,0.138,-0.032,0.999
1148,0.132,-0.026,1.022
1149,0.126,-0.002,1.04
1150,0.122,0.032,1.052
1151,0.118,0.063,1.061
1152,0.111,0.083,1.067
1153,0.1,0.083,1.068
1154,0.087,0.068,1.059
1155,0.075,0.045,1.038
1156,0.069,0.026,1
1157,0.073,0.019,0.945
1158,0.085,0.029,0.88
1159,0.098,0.053,0.812
1160,0.102,0.084,0.754
1161,0.088,0.114,0.717
1162,0.054,0.133,0.709
1163,0.002,0.133,0.734
1164,-0.055,0.11,0.791
1165,-0.103,0.067,0.872
1166,-0.127,0.015,0.963
1167,-0.119,-0.031,1.052
1168,-0.08,-0.06,1.125
1169,-0.019,-0.067,1.171
1170,0.051,-0.057,1.181
1171,0.12,-0.041,1.154
1172,0.177,-0.024,1.093
1173,0.216,-0.009,1.011
1174,0.233,0.009,0.927
1175,0.224,0.032,0.862
1176,0.192,0.058,0.833
1177,0.143,0.083,0.845
1178,0.088,0.1,0.892
1179,0.042,0.107,0.956
1180,0.014,0.105,1.017
1181,0.009,0.097,1.061
1182,0.021,0.085,1.081
1183,0.04,0.071,1.075
1184,0.053,0.05,1.051
1185,0.053,0.022,1.014
1186,0.041,-0.01,0.972
1187,0.026,-0.04,0.932
1188,0.021,-0.059,0.897
1189,0.036,-0.062,0.871
1190,0.073,-0.047,0.855
1191,0.122,-0.018,0.855
1192,0.167,0.019,0.873
1193,0.19,0.057,0.911
1194,0.179,0.091,0.968
1195,0.136,0.118,1.036
1196,0.071,0.136,1.103
1197,0.006,0.149,1.157
1198,-0.042,0.156,1.187
1199,-0.06,0.161,1.189
1200,-0.048,0.164,1.166
1201,-0.014,0.164,1.125
1202,0.029,0.16,1.072
1203,0.07,0.152,1.01
1204,0.102,0.141,0.945
1205,0.122,0.131,0.882
1206,0.132,0.126,0.83
1207,0.13,0.128,0.798
1208,0.117,0.136,0.791
1209,0.093,0.144,0.81
1210,0.063,0.149,0.85
1211,0.037,0.147,0.902
1212,0.025,0.141,0.959
1213,0.033,0.13,1.011
1214,0.06,0.116,1.051
1215,0.097,0.1,1.071
1216,0.136,0.083,1.066
1217,0.169,0.068,1.037
1218,0.193,0.061,0.988
1219,0.209,0.064,0.925
1220,0.214,0.08,0.861
1221,0.208,0.1,0.803
1222,0.184,0.118,0.758
1223,0.144,0.129,0.73
1224,0.092,0.133,0.724
1225,0.04,0.135,0.74
1226,0,0.138,0.779
1227,-0.019,0.141,0.835
1228,-0.013,0.143,0.896
1229,0.014,0.143,0.951
1230,0.054,0.14,0.991
1231,0.096,0.137,1.01
1232,0.131,0.135,1.009
1233,0.15,0.134,0.991
1234,0.151,0.13,0.958
1235,0.133,0.119,0.919
1236,0.102,0.101,0.881
1237,0.064,0.084,0.854
1238,0.027,0.074,0.846
1239,-0.001,0.075,0.86
1240,-0.019,0.084,0.893
1241,-0.026,0.092,0.936
1242,-0.023,0.089,0.98
1243,-0.011,0.069,1.016
1244,0.012,0.035,1.039
1245,0.043,-0.001,1.046
1246,0.079,-0.028,1.036
1247,0.115,-0.036,1.009
1248,0.145,-0.023,0.969
1249,0.166,0.006,0.923
1250,0.175,0.042,0.877
1251,0.17,0.081,0.839
1252,0.15,0.118,0.811
1253,0.116,0.15,0.795
1254,0.074,0.172,0.792
1255,0.032,0.179,0.799
1256,0.001,0.167,0.815
1257,-0.01,0.141,0.839
1258,0.001,0.107,0.872
1259,0.03,0.073,0.911
1260,0.067,0.042,0.954
1261,0.103,0.012,1
1262,0.132,-0.019,1.043
1263,0.151,-0.049,1.082
1264,0.162,-0.072,1.114
1265,0.165,-0.079,1.142
1266,0.158,-0.069,1.166
1267,0.139,-0.045,1.189
1268,0.104,-0.017,1.209
1269,0.056,0.009,1.221
1270,0,0.033,1.218
1271,-0.054,0.055,1.199
1272,-0.099,0.073,1.162
1273,-0.123,0.081,1.108
1274,-0.123,0.073,1.039
1275,-0.099,0.047,0.963
1276,-0.055,0.014,0.886
1277,-0.003,-0.014,0.819
1278,0.047,-0.028,0.772
1279,0.089,-0.027,0.751
1280,0.12,-0.017,0.757
1281,0.14,-0.007,0.786
1282,0.147,0.004,0.837
1283,0.143,0.02,0.908
1284,0.129,0.043,0.995
1285,0.109,0.071,1.091
1286,0.088,0.099,1.183
1287,0.07,0.119,1.259
1288,0.061,0.128,1.304
1289,0.062,0.127,1.311
1290,0.074,0.116,1.276
1291,0.096,0.097,1.203
1292,0.124,0.071,1.1
1293,0.152,0.042,0.978
1294,0.178,0.016,0.854
1295,0.197,-0.002,0.748
1296,0.203,-0.006,0.676
1297,0.192,0.006,0.652
1298,0.165,0.032,0.678
1299,0.124,0.071,0.747
1300,0.079,0.117,0.846
1301,0.038,0.165,0.959
1302,0.006,0.209,1.069
1303,-0.012,0.239,1.163
1304,-0.019,0.249,1.225
1305,-0.016,0.237,1.244
1306,-0.005,0.208,1.215
1307,0.011,0.169,1.142
1308,0.031,0.13,1.037
1309,0.054,0.098,0.918
1310,0.078,0.077,0.801
1311,0.098,0.068,0.702
1312,0.11,0.068,0.631
1313,0.111,0.071,0.598
1314,0.101,0.073,0.61
1315,0.081,0.073,0.668
1316,0.052,0.071,0.764
1317,0.02,0.069,0.885
1318,-0.009,0.069,1.011
1319,-0.028,0.07,1.123
1320,-0.03,0.073,1.206
1321,-0.014,0.074,1.248
1322,0.018,0.073,1.243
1323,0.056,0.07,1.193
1324,0.093,0.065,1.107
1325,0.123,0.057,0.999
1326,0.14,0.049,0.884
1327,0.147,0.047,0.778
1328,0.143,0.056,0.693
1329,0.13,0.075,0.638
1330,0.107,0.103,0.621
1331,0.075,0.129,0.643
1332,0.037,0.147,0.7
1333,-0.002,0.151,0.78
1334,-0.036,0.144,0.872
1335,-0.058,0.131,0.962
1336,-0.063,0.115,1.039
1337,-0.049,0.097,1.095
1338,-0.016,0.077,1.128
1339,0.029,0.056,1.137
1340,0.078,0.038,1.129
1341,0.122,0.025,1.109
1342,0.153,0.017,1.082
1343,0.167,0.015,1.054
1344,0.167,0.014,1.026
1345,0.158,0.019,1.001
1346,0.146,0.033,0.985
1347,0.134,0.059,0.982
1348,0.121,0.096,0.997
1349,0.102,0.137,1.03
1350,0.073,0.171,1.073
1351,0.038,0.192,1.113
1352,0.006,0.195,1.138
1353,-0.011,0.183,1.139
1354,-0.005,0.161,1.112
1355,0.026,0.133,1.063
1356,0.071,0.103,1.003
1357,0.114,0.074,0.943
1358,0.141,0.051,0.895
1359,0.142,0.037,0.868
1360,0.122,0.035,0.864
1361,0.091,0.043,0.88
1362,0.065,0.057,0.915
1363,0.053,0.072,0.966
1364,0.059,0.082,1.029
1365,0.076,0.084,1.1
1366,0.096,0.079,1.174
1367,0.11,0.071,1.241
1368,0.114,0.066,1.289
1369,0.109,0.068,1.31
1370,0.1,0.076,1.296
1371,0.094,0.085,1.25
1372,0.095,0.089,1.18
1373,0.099,0.086,1.101
1374,0.102,0.077,1.028
1375,0.098,0.067,0.973
1376,0.087,0.061,0.941
1377,0.071,0.059,0.932
1378,0.061,0.059,0.939
1379,0.064,0.06,0.953
1380,0.084,0.063,0.968
1381,0.119,0.07,0.985
1382,0.157,0.081,1.005
1383,0.181,0.094,1.032
1384,0.179,0.107,1.067
1385,0.148,0.116,1.109
1386,0.098,0.118,1.146
1387,0.046,0.108,1.167
1388,0.014,0.087,1.16
1389,0.016,0.055,1.123
1390,0.052,0.02,1.061
1391,0.11,-0.01,0.988
1392,0.168,-0.026,0.922
1393,0.205,-0.023,0.875
1394,0.209,0,0.856
1395,0.181,0.036,0.864
1396,0.133,0.074,0.893
1397,0.087,0.102,0.935
1398,0.06,0.113,0.982
1399,0.058,0.108,1.029
1400,0.079,0.096,1.072
1401,0.113,0.092,1.105
1402,0.147,0.104,1.124
1403,0.172,0.132,1.125
1404,0.184,0.165,1.106
1405,0.181,0.193,1.068
1406,0.168,0.207,1.016
1407,0.148,0.206,0.96
1408,0.129,0.193,0.915
1409,0.112,0.175,0.894
1410,0.101,0.155,0.904
1411,0.093,0.135,0.942
1412,0.089,0.119,0.996
1413,0.087,0.112,1.053
1414,0.088,0.114,1.097
1415,0.095,0.123,1.12
1416,0.107,0.131,1.118
1417,0.119,0.136,1.095
1418,0.124,0.134,1.053
1419,0.118,0.129,1
1420,0.101,0.123,0.939
1421,0.079,0.119,0.876
1422,0.062,0.117,0.814
1423,0.055,0.117,0.76
1424,0.059,0.12,0.721
1425,0.07,0.126,0.703
1426,0.08,0.136,0.711
1427,0.085,0.146,0.742
1428,0.085,0.153,0.789
1429,0.086,0.158,0.842
1430,0.09,0.159,0.894
1431,0.098,0.155,0.942
1432,0.106,0.147,0.985
1433,0.108,0.132,1.02
1434,0.101,0.114,1.044
1435,0.089,0.097,1.048
1436,0.081,0.093,1.027
1437,0.085,0.105,0.983
1438,0.1,0.131,0.927
1439,0.118,0.157,0.877
1440,0.122,0.168,0.844
1441,0.105,0.155,0.835
1442,0.068,0.122,0.848
1443,0.022,0.078,0.874
1444,-0.011,0.037,0.902
1445,-0.014,0.01,0.926
1446,0.023,0,0.948
1447,0.092,0.005,0.974
1448,0.172,0.02,1.01
1449,0.235,0.039,1.057
1450,0.263,0.058,1.111
1451,0.25,0.073,1.158
1452,0.208,0.081,1.184
1453,0.155,0.083,1.177
1454,0.111,0.082,1.138
1455,0.082,0.083,1.079
1456,0.065,0.09,1.019
1457,0.05,0.106,0.971
1458,0.03,0.126,0.938
1459,0.007,0.144,0.916
1460,-0.007,0.151,0.892
1461,0,0.144,0.86
1462,0.032,0.122,0.821
1463,0.086,0.092,0.788
1464,0.144,0.057,0.777
1465,0.187,0.026,0.795
1466,0.203,0.005,0.841
1467,0.193,0.002,0.908
1468,0.168,0.025,0.983
1469,0.146,0.075,1.057
1470,0.139,0.143,1.125
1471,0.147,0.211,1.185
1472,0.159,0.261,1.231
1473,0.158,0.279,1.258
1474,0.135,0.264,1.259
1475,0.09,0.223,1.229
1476,0.039,0.17,1.168
1477,-0.001,0.12,1.082
1478,-0.015,0.08,0.986
1479,-0.001,0.055,0.893
1480,0.034,0.04,0.821
1481,0.078,0.034,0.78
1482,0.12,0.031,0.779
1483,0.155,0.029,0.813
1484,0.182,0.028,0.871
1485,0.206,0.028,0.939
1486,0.228,0.033,1.007
1487,0.242,0.046,1.069
1488,0.24,0.068,1.12
1489,0.214,0.098,1.159
1490,0.163,0.134,1.176
1491,0.098,0.171,1.163
1492,0.035,0.204,1.112
1493,-0.007,0.227,1.024
1494,-0.017,0.235,0.905
1495,0.001,0.227,0.771
1496,0.033,0.2,0.645
1497,0.061,0.157,0.549
1498,0.067,0.099,0.5
1499,0.05,0.035,0.504
1500,0.022,-0.023,0.56
1501,0.002,-0.061,0.66
1502,0.007,-0.067,0.794
1503,0.037,-0.043,0.95
1504,0.082,-0.001,1.114
1505,0.119,0.041,1.267
1506,0.131,0.067,1.387
1507,0.117,0.07,1.454
1508,0.086,0.059,1.456
1509,0.058,0.049,1.39
1510,0.05,0.053,1.267
1511,0.065,0.074,1.109
1512,0.095,0.106,0.942
1513,0.126,0.138,0.791
1514,0.142,0.161,0.676
1515,0.137,0.168,0.608
1516,0.111,0.159,0.591
1517,0.072,0.135,0.624
1518,0.03,0.102,0.702
1519,-0.007,0.067,0.812
1520,-0.032,0.037,0.936
1521,-0.041,0.019,1.053
1522,-0.032,0.013,1.142
1523,-0.005,0.017,1.186
1524,0.037,0.027,1.18
1525,0.087,0.038,1.129
1526,0.13,0.05,1.049
1527,0.153,0.06,0.961
1528,0.145,0.068,0.885
1529,0.102,0.07,0.832
1530,0.035,0.067,0.801
1531,-0.032,0.06,0.787
1532,-0.074,0.052,0.782
1533,-0.07,0.047,0.788
1534,-0.018,0.047,0.81
1535,0.064,0.052,0.859
1536,0.147,0.059,0.936
1537,0.204,0.063,1.04
1538,0.223,0.062,1.155
1539,0.211,0.053,1.261
1540,0.187,0.042,1.337
1541,0.172,0.036,1.367
1542,0.178,0.041,1.351
1543,0.2,0.062,1.301
1544,0.221,0.095,1.233
1545,0.217,0.135,1.164
1546,0.178,0.17,1.1
1547,0.109,0.192,1.04
1548,0.031,0.196,0.978
1549,-0.026,0.181,0.909
1550,-0.043,0.151,0.84
1551,-0.017,0.109,0.785
1552,0.037,0.063,0.762
1553,0.093,0.026,0.781
1554,0.129,0.009,0.843
1555,0.138,0.02,0.937
1556,0.129,0.056,1.042
1557,0.119,0.103,1.138
1558,0.122,0.147,1.211
1559,0.14,0.176,1.254
1560,0.164,0.186,1.266
1561,0.179,0.179,1.249
1562,0.175,0.164,1.204
1563,0.15,0.146,1.131
1564,0.116,0.133,1.034
1565,0.088,0.127,0.919
1566,0.078,0.124,0.801
1567,0.087,0.12,0.7
1568,0.107,0.107,0.636
1569,0.124,0.085,0.625
1570,0.126,0.059,0.672
1571,0.112,0.035,0.77
1572,0.087,0.016,0.902
1573,0.062,0.002,1.046
1574,0.05,-0.005,1.177
1575,0.053,-0.005,1.275
1576,0.069,0.005,1.329
1577,0.089,0.031,1.336
1578,0.104,0.071,1.299
1579,0.106,0.12,1.224
1580,0.095,0.17,1.121
1581,0.074,0.21,0.999
1582,0.05,0.235,0.871
1583,0.031,0.242,0.753
1584,0.021,0.232,0.66
1585,0.015,0.207,0.603
1586,0.007,0.173,0.589
1587,-0.008,0.135,0.618
1588,-0.03,0.101,0.685
1589,-0.053,0.074,0.775
1590,-0.068,0.055,0.873
1591,-0.065,0.043,0.965
1592,-0.04,0.034,1.043
1593,0.006,0.025,1.1
1594,0.063,0.015,1.133
1595,0.121,0.006,1.139
1596,0.167,-0.001,1.115
1597,0.199,-0.002,1.061
1598,0.214,0.008,0.984
1599,0.213,0.03,0.898
1600,0.196,0.06,0.819
1601,0.159,0.092,0.763
1602,0.104,0.118,0.739
1603,0.038,0.134,0.748
1604,-0.024,0.139,0.785
1605,-0.069,0.135,0.839
1606,-0.088,0.123,0.902
1607,-0.079,0.104,0.967
1608,-0.05,0.08,1.029
1609,-0.012,0.052,1.084
1610,0.022,0.026,1.124
1611,0.047,0.005,1.14
1612,0.063,-0.009,1.126
1613,0.077,-0.015,1.082
1614,0.094,-0.014,1.018
1615,0.109,-0.007,0.95
1616,0.114,0.008,0.897
1617,0.096,0.03,0.875
1618,0.05,0.061,0.89
1619,-0.017,0.096,0.938
1620,-0.089,0.129,1.006
1621,-0.145,0.15,1.077
1622,-0.169,0.154,1.136
1623,-0.156,0.138,1.174
1624,-0.115,0.106,1.191
1625,-0.058,0.066,1.188
1626,-0.002,0.026,1.165
1627,0.048,-0.007,1.124
1628,0.091,-0.028,1.068
1629,0.136,-0.034,1.001
1630,0.185,-0.024,0.931
1631,0.237,0.002,0.869
1632,0.285,0.04,0.829
1633,0.314,0.083,0.819
1634,0.312,0.121,0.84
1635,0.273,0.142,0.887
1636,0.203,0.14,0.948
1637,0.118,0.116,1.011
1638,0.038,0.076,1.064
1639,-0.023,0.031,1.099
1640,-0.057,-0.01,1.112
1641,-0.063,-0.04,1.101
1642,-0.047,-0.057,1.067
1643,-0.015,-0.062,1.014
1644,0.028,-0.058,0.951
1645,0.076,-0.048,0.89
1646,0.121,-0.036,0.846
1647,0.15,-0.022,0.829
1648,0.154,-0.003,0.843
1649,0.129,0.029,0.886
1650,0.083,0.076,0.95
1651,0.03,0.135,1.018
1652,-0.016,0.194,1.075
1653,-0.043,0.237,1.108
1654,-0.045,0.251,1.113
1655,-0.026,0.23,1.093
1656,0.003,0.18,1.057
1657,0.03,0.111,1.014
1658,0.042,0.036,0.972
1659,0.041,-0.032,0.936
1660,0.034,-0.087,0.909
1661,0.033,-0.126,0.89
1662,0.047,-0.145,0.877
1663,0.074,-0.142,0.87
1664,0.104,-0.116,0.87
1665,0.123,-0.072,0.876
1666,0.121,-0.019,0.887
1667,0.096,0.029,0.895
1668,0.055,0.064,0.893
1669,0.012,0.083,0.874
1670,-0.019,0.089,0.837
1671,-0.031,0.085,0.785
1672,-0.024,0.075,0.72
1673,-0.004,0.062,0.651
1674,0.022,0.052,0.584
1675,0.042,0.049,0.529
1676,0.051,0.056,0.497
1677,0.047,0.071,0.496
1678,0.031,0.089,0.531
1679,0.006,0.102,0.601
1680,-0.022,0.105,0.701
1681,-0.05,0.098,0.82
1682,-0.071,0.085,0.949
1683,-0.08,0.07,1.074
1684,-0.072,0.057,1.182
1685,-0.044,0.045,1.259
1686,0.003,0.035,1.297
1687,0.063,0.022,1.295
1688,0.127,0.007,1.256
1689,0.182,-0.008,1.193
1690,0.216,-0.017,1.12
1691,0.226,-0.019,1.051
1692,0.214,-0.01,0.998
1693,0.188,0.009,0.965
1694,0.159,0.035,0.954
1695,0.134,0.065,0.962
1696,0.117,0.094,0.984
1697,0.101,0.117,1.013
1698,0.081,0.131,1.039
1699,0.053,0.128,1.052
1700,0.019,0.107,1.045
1701,-0.015,0.072,1.015
1702,-0.038,0.033,0.963
1703,-0.044,0.002,0.896
1704,-0.032,-0.013,0.818
1705,-0.007,-0.014,0.739
1706,0.025,-0.006,0.666
1707,0.055,0.002,0.609
1708,0.079,0.002,0.576
1709,0.093,-0.008,0.579
1710,0.094,-0.028,0.625
1711,0.079,-0.054,0.715
1712,0.047,-0.08,0.842
1713,0.003,-0.1,0.99
1714,-0.042,-0.102,1.139
1715,-0.075,-0.08,1.267
1716,-0.086,-0.037,1.361
1717,-0.07,0.014,1.408
1718,-0.035,0.054,1.406
1719,0.01,0.067,1.354
1720,0.053,0.055,1.26
1721,0.088,0.036,1.135
1722,0.118,0.03,0.996
1723,0.147,0.052,0.862
1724,0.181,0.098,0.75
1725,0.217,0.15,0.677
1726,0.243,0.192,0.655
1727,0.247,0.213,0.693
1728,0.22,0.208,0.791
1729,0.164,0.181,0.937
1730,0.096,0.134,1.109
1731,0.036,0.071,1.275
1732,0.007,0,1.405
1733,0.025,-0.068,1.473
1734,0.09,-0.121,1.466
1735,0.189,-0.152,1.389
1736,0.298,-0.158,1.258
1737,0.388,-0.138,1.099
1738,0.44,-0.094,0.942
1739,0.441,-0.031,0.811
1740,0.395,0.043,0.726
1741,0.318,0.114,0.694
1742,0.232,0.169,0.713
1743,0.158,0.202,0.769
1744,0.108,0.211,0.846
1745,0.082,0.204,0.929
1746,0.072,0.193,1.007
1747,0.067,0.186,1.076
1748,0.058,0.188,1.129
1749,0.044,0.196,1.159
1750,0.027,0.205,1.16
1751,0.015,0.206,1.128
1752,0.016,0.194,1.069
1753,0.032,0.164,0.991
1754,0.06,0.123,0.912
1755,0.092,0.084,0.845
1756,0.117,0.063,0.805
1757,0.126,0.071,0.798
1758,0.115,0.106,0.827
1759,0.087,0.154,0.888
1760,0.048,0.197,0.969
1761,0.004,0.221,1.058
1762,-0.033,0.222,1.14
1763,-0.054,0.203,1.198
1764,-0.05,0.172,1.224
1765,-0.017,0.14,1.212
1766,0.04,0.113,1.163
1767,0.106,0.096,1.083
1768,0.162,0.092,0.983
1769,0.19,0.095,0.874
1770,0.179,0.096,0.764
1771,0.13,0.09,0.661
1772,0.061,0.076,0.569
1773,-0.008,0.062,0.498
1774,-0.057,0.056,0.453
1775,-0.076,0.061,0.446
1776,-0.064,0.071,0.483
1777,-0.034,0.078,0.566
1778,0.003,0.072,0.69
1779,0.035,0.049,0.839
1780,0.06,0.014,0.996
1781,0.079,-0.025,1.141
1782,0.099,-0.058,1.253
1783,0.125,-0.078,1.317
1784,0.157,-0.083,1.327
1785,0.191,-0.072,1.287
1786,0.213,-0.05,1.214
1787,0.209,-0.025,1.13
1788,0.167,-0.006,1.06
1789,0.089,0.005,1.015
1790,-0.008,0.005,1
1791,-0.097,-0.003,1.009
1792,-0.152,-0.013,1.035
1793,-0.159,-0.022,1.07
1794,-0.118,-0.025,1.107
1795,-0.04,-0.02,1.14
1796,0.055,-0.006,1.161
1797,0.146,0.012,1.162
1798,0.218,0.027,1.143
1799,0.261,0.033,1.111
1800,0.272,0.023,1.077
1801,0.253,0.002,1.055
1802,0.212,-0.019,1.052
1803,0.163,-0.028,1.066
1804,0.118,-0.018,1.093
1805,0.087,0.013,1.13
1806,0.074,0.056,1.168
1807,0.073,0.101,1.202
1808,0.072,0.134,1.228
1809,0.062,0.147,1.244
1810,0.04,0.135,1.25
1811,0.012,0.1,1.246
1812,-0.008,0.049,1.227
1813,-0.007,-0.005,1.19
1814,0.022,-0.047,1.139
1815,0.077,-0.069,1.082
1816,0.146,-0.069,1.036
1817,0.208,-0.051,1.016
1818,0.244,-0.021,1.032
1819,0.238,0.017,1.086
1820,0.192,0.058,1.169
1821,0.12,0.097,1.26
1822,0.046,0.126,1.338
1823,-0.004,0.139,1.384
1824,-0.016,0.134,1.39
1825,0.012,0.119,1.355
1826,0.063,0.105,1.289
1827,0.115,0.095,1.207
1828,0.146,0.088,1.121
1829,0.147,0.078,1.038
1830,0.123,0.059,0.957
1831,0.091,0.033,0.878
1832,0.072,0.007,0.806
1833,0.077,-0.012,0.753
1834,0.101,-0.021,0.734
1835,0.127,-0.021,0.761
1836,0.138,-0.014,0.83
1837,0.123,-0.002,0.928
1838,0.09,0.019,1.032
1839,0.054,0.046,1.118
1840,0.036,0.075,1.171
1841,0.049,0.093,1.182
1842,0.091,0.092,1.15
1843,0.147,0.069,1.076
1844,0.197,0.034,0.974
1845,0.226,0,0.857
1846,0.228,-0.017,0.744
1847,0.203,-0.011,0.654
1848,0.16,0.012,0.602
1849,0.109,0.041,0.598
1850,0.059,0.065,0.645
1851,0.017,0.078,0.735
1852,-0.013,0.078,0.85
1853,-0.024,0.071,0.97
1854,-0.011,0.06,1.072
1855,0.024,0.043,1.139
1856,0.073,0.02,1.159
1857,0.125,-0.005,1.132
1858,0.166,-0.026,1.063
1859,0.188,-0.032,0.961
1860,0.19,-0.015,0.839
1861,0.174,0.023,0.713
1862,0.143,0.073,0.605
1863,0.097,0.12,0.538
1864,0.033,0.152,0.531
1865,-0.05,0.164,0.59
1866,-0.142,0.16,0.706
1867,-0.228,0.149,0.854
1868,-0.283,0.138,1.008
1869,-0.289,0.128,1.137
1870,-0.236,0.112,1.223
1871,-0.132,0.086,1.254
1872,0.003,0.047,1.228
1873,0.143,-0.003,1.155
1874,0.265,-0.056,1.049
1875,0.357,-0.101,0.932
1876,0.417,-0.128,0.825
1877,0.448,-0.127,0.751
1878,0.455,-0.093,0.727
1879,0.438,-0.032,0.76
1880,0.394,0.043,0.849
1881,0.321,0.114,0.979
1882,0.223,0.166,1.127
1883,0.116,0.191,1.271
1884,0.02,0.191,1.383
1885,-0.041,0.175,1.445
1886,-0.055,0.151,1.441
1887,-0.019,0.126,1.37
1888,0.05,0.104,1.246
1889,0.127,0.081,1.091
1890,0.188,0.055,0.931
1891,0.218,0.027,0.789
1892,0.213,-0.004,0.684
1893,0.18,-0.033,0.629
1894,0.131,-0.05,0.631
1895,0.074,-0.046,0.689
1896,0.018,-0.017,0.793
1897,-0.03,0.034,0.927
1898,-0.066,0.092,1.074
1899,-0.089,0.137,1.214
1900,-0.096,0.154,1.329
1901,-0.088,0.136,1.404
1902,-0.064,0.091,1.43
1903,-0.028,0.036,1.403
1904,0.014,-0.011,1.333
1905,0.057,-0.039,1.234
1906,0.099,-0.049,1.123
1907,0.139,-0.048,1.017
1908,0.178,-0.046,0.93
1909,0.214,-0.047,0.869
1910,0.244,-0.051,0.84
1911,0.262,-0.05,0.846
1912,0.266,-0.039,0.884
1913,0.253,-0.019,0.944
1914,0.225,0.005,1.012
1915,0.188,0.025,1.077
1916,0.15,0.036,1.125
1917,0.119,0.034,1.148
1918,0.102,0.022,1.14
1919,0.098,0.005,1.103
1920,0.104,-0.014,1.047
1921,0.112,-0.031,0.987
1922,0.117,-0.043,0.936
1923,0.115,-0.048,0.902
1924,0.106,-0.044,0.886
1925,0.095,-0.032,0.883
1926,0.085,-0.014,0.888
1927,0.079,0.006,0.896
1928,0.076,0.023,0.902
1929,0.073,0.037,0.901
1930,0.068,0.051,0.892
1931,0.061,0.07,0.872
1932,0.05,0.096,0.841
1933,0.039,0.123,0.801
1934,0.03,0.141,0.753
1935,0.024,0.146,0.703
1936,0.022,0.136,0.659
1937,0.021,0.121,0.632
1938,0.019,0.106,0.633
1939,0.016,0.098,0.665
1940,0.014,0.095,0.729
1941,0.018,0.096,0.816
1942,0.03,0.099,0.916
1943,0.045,0.104,1.021
1944,0.059,0.107,1.124
1945,0.066,0.109,1.216
1946,0.062,0.108,1.287
1947,0.053,0.111,1.326
1948,0.045,0.125,1.322
1949,0.047,0.154,1.277
1950,0.061,0.19,1.197
1951,0.082,0.222,1.096
1952,0.1,0.235,0.985
1953,0.104,0.222,0.875
1954,0.088,0.19,0.771
1955,0.054,0.152,0.677
1956,0.01,0.123,0.604
1957,-0.032,0.111,0.562
1958,-0.065,0.115,0.557
1959,-0.086,0.126,0.594
1960,-0.097,0.136,0.67
1961,-0.101,0.138,0.775
1962,-0.098,0.134,0.896
1963,-0.085,0.122,1.017
1964,-0.057,0.103,1.122
1965,-0.014,0.079,1.198
1966,0.042,0.054,1.232
1967,0.1,0.032,1.22
1968,0.149,0.021,1.166
1969,0.176,0.022,1.082
1970,0.177,0.031,0.985
1971,0.151,0.04,0.893
1972,0.105,0.039,0.823
1973,0.049,0.023,0.789
1974,-0.009,-0.004,0.804
1975,-0.058,-0.037,0.868
1976,-0.093,-0.066,0.976
1977,-0.108,-0.086,1.106
1978,-0.1,-0.097,1.235
1979,-0.068,-0.102,1.336
1980,-0.016,-0.106,1.393
1981,0.049,-0.11,1.396
1982,0.118,-0.111,1.346
1983,0.18,-0.104,1.254
1984,0.224,-0.085,1.135
1985,0.247,-0.057,1.007
1986,0.248,-0.027,0.889
1987,0.228,0,0.798
1988,0.189,0.02,0.749
1989,0.133,0.032,0.747
1990,0.064,0.036,0.792
1991,-0.011,0.033,0.875
1992,-0.081,0.023,0.979
1993,-0.13,0.007,1.087
1994,-0.146,-0.011,1.181
1995,-0.125,-0.028,1.248
1996,-0.069,-0.042,1.281
1997,0.008,-0.055,1.277
1998,0.088,-0.068,1.237
1999,0.157,-0.081,1.167
2000,0.203,-0.089,1.08
2001,0.222,-0.085,0.995
2002,0.216,-0.059,0.929
2003,0.186,-0.014,0.897
2004,0.138,0.043,0.905
2005,0.08,0.096,0.947
2006,0.022,0.136,1.011
2007,-0.025,0.161,1.079
2008,-0.048,0.175,1.132
2009,-0.041,0.181,1.16
2010,-0.004,0.177,1.158
2011,0.053,0.159,1.125
2012,0.115,0.127,1.071
2013,0.167,0.088,1.005
2014,0.198,0.054,0.94
2015,0.203,0.033,0.884
2016,0.187,0.028,0.846
2017,0.155,0.035,0.829
2018,0.115,0.049,0.834
2019,0.073,0.067,0.858
2020,0.029,0.086,0.9
2021,-0.016,0.104,0.954
2022,-0.061,0.118,1.01
2023,-0.104,0.122,1.056
2024,-0.136,0.114,1.08
2025,-0.147,0.094,1.076
2026,-0.132,0.065,1.045
2027,-0.092,0.034,0.997
2028,-0.034,0.005,0.943
2029,0.029,-0.017,0.894
2030,0.082,-0.031,0.856
2031,0.118,-0.036,0.832
2032,0.133,-0.032,0.826
2033,0.131,-0.017,0.836
2034,0.116,0.006,0.861
2035,0.094,0.035,0.898
2036,0.067,0.065,0.94
2037,0.036,0.089,0.982
2038,0.002,0.106,1.017
2039,-0.029,0.115,1.038
2040,-0.051,0.117,1.037
2041,-0.056,0.11,1.011
2042,-0.042,0.092,0.961
2043,-0.013,0.061,0.896
2044,0.018,0.02,0.828
2045,0.043,-0.026,0.771
2046,0.053,-0.064,0.736
2047,0.048,-0.086,0.73
2048,0.035,-0.088,0.753
2049,0.021,-0.072,0.801
2050,0.01,-0.045,0.866
2051,0.004,-0.017,0.94
2052,-0.001,0.005,1.014
2053,-0.008,0.017,1.077
2054,-0.015,0.021,1.12
2055,-0.02,0.021,1.131
2056,-0.017,0.024,1.104
2057,-0.002,0.033,1.038
2058,0.026,0.048,0.945
2059,0.056,0.068,0.842
2060,0.077,0.087,0.748
2061,0.077,0.098,0.683
2062,0.052,0.093,0.659
2063,0.009,0.071,0.68
2064,-0.037,0.036,0.745
2065,-0.071,-0.003,0.847
2066,-0.084,-0.036,0.971
2067,-0.072,-0.058,1.101
2068,-0.04,-0.072,1.223
2069,0.004,-0.082,1.319
2070,0.05,-0.093,1.376
2071,0.092,-0.101,1.386
2072,0.128,-0.101,1.348
2073,0.156,-0.083,1.272
2074,0.176,-0.046,1.173
2075,0.185,0.009,1.067
2076,0.18,0.068,0.969
2077,0.159,0.121,0.885
2078,0.125,0.158,0.82
2079,0.081,0.178,0.775
2080,0.035,0.183,0.749
2081,-0.004,0.175,0.74
2082,-0.029,0.156,0.748
2083,-0.035,0.129,0.772
2084,-0.024,0.097,0.811
2085,-0.002,0.066,0.864
2086,0.023,0.041,0.924
2087,0.047,0.026,0.985
2088,0.065,0.02,1.039
2089,0.078,0.019,1.083
2090,0.087,0.018,1.114
2091,0.09,0.017,1.131
2092,0.085,0.018,1.137
2093,0.073,0.023,1.133
2094,0.054,0.036,1.12
2095,0.034,0.056,1.098
2096,0.019,0.077,1.066
2097,0.015,0.093,1.028
2098,0.024,0.097,0.992
2099,0.041,0.092,0.965
2100,0.061,0.08,0.955
2101,0.078,0.066,0.967
2102,0.093,0.054,0.996
2103,0.109,0.049,1.035
2104,0.132,0.054,1.071
2105,0.164,0.067,1.091
2106,0.2,0.084,1.087
2107,0.228,0.097,1.059
2108,0.236,0.1,1.012
2109,0.216,0.089,0.953
2110,0.173,0.07,0.886
2111,0.122,0.053,0.819
2112,0.082,0.052,0.754
2113,0.068,0.072,0.701
2114,0.085,0.108,0.669
2115,0.124,0.147,0.665
2116,0.166,0.174,0.69
2117,0.192,0.183,0.738
2118,0.189,0.176,0.802
2119,0.158,0.162,0.872
2120,0.106,0.148,0.941
2121,0.046,0.137,0.999
2122,-0.011,0.131,1.042
2123,-0.058,0.129,1.066
2124,-0.093,0.13,1.071
2125,-0.117,0.135,1.062
2126,-0.128,0.139,1.043
2127,-0.126,0.137,1.016
2128,-0.111,0.124,0.983
2129,-0.08,0.099,0.945
2130,-0.035,0.064,0.904
2131,0.019,0.026,0.866
2132,0.074,-0.007,0.84
2133,0.12,-0.026,0.832
2134,0.148,-0.027,0.844
2135,0.156,-0.015,0.873
2136,0.148,0.006,0.91
2137,0.132,0.031,0.947
2138,0.117,0.057,0.976
2139,0.108,0.086,0.995
2140,0.103,0.117,1.002
2141,0.099,0.143,0.999
2142,0.091,0.156,0.985
2143,0.078,0.152,0.956
2144,0.063,0.133,0.91
2145,0.052,0.11,0.845
2146,0.048,0.096,0.766
2147,0.049,0.096,0.683
2148,0.049,0.106,0.609
2149,0.038,0.113,0.559
2150,0.013,0.106,0.544
2151,-0.025,0.086,0.574
2152,-0.066,0.06,0.651
2153,-0.098,0.038,0.776
2154,-0.11,0.024,0.937
2155,-0.095,0.017,1.117
2156,-0.054,0.013,1.294
2157,0.009,0.011,1.444
2158,0.083,0.016,1.549
2159,0.158,0.027,1.599
2160,0.221,0.044,1.593
2161,0.263,0.056,1.538
2162,0.277,0.056,1.447
2163,0.264,0.038,1.339
2164,0.226,0.006,1.235
2165,0.174,-0.03,1.152
2166,0.123,-0.059,1.104
2167,0.088,-0.077,1.093
2168,0.08,-0.083,1.115
2169,0.098,-0.077,1.16
2170,0.136,-0.063,1.217
2171,0.18,-0.042,1.274
2172,0.217,-0.015,1.323
2173,0.24,0.017,1.351
2174,0.249,0.049,1.349
2175,0.251,0.079,1.314
2176,0.251,0.101,1.244
2177,0.255,0.112,1.149
2178,0.26,0.111,1.04
2179,0.258,0.1,0.934
2180,0.241,0.082,0.842
2181,0.201,0.062,0.778
2182,0.14,0.044,0.75
2183,0.068,0.031,0.765
2184,0.002,0.024,0.825
2185,-0.044,0.021,0.921
2186,-0.062,0.023,1.042
2187,-0.053,0.029,1.171
2188,-0.024,0.037,1.291
2189,0.016,0.045,1.386
2190,0.058,0.049,1.444
2191,0.096,0.052,1.457
2192,0.128,0.056,1.422
2193,0.152,0.067,1.344
2194,0.169,0.084,1.236
2195,0.18,0.103,1.113
2196,0.183,0.12,0.991
2197,0.179,0.135,0.883
2198,0.172,0.15,0.8
2199,0.164,0.168,0.751
2200,0.155,0.187,0.738
2201,0.143,0.201,0.761
2202,0.124,0.204,0.812
2203,0.101,0.195,0.876
2204,0.078,0.177,0.939
2205,0.06,0.156,0.988
2206,0.052,0.137,1.015
2207,0.056,0.123,1.017
2208,0.071,0.11,0.991
2209,0.092,0.095,0.939
2210,0.116,0.082,0.864
2211,0.135,0.073,0.778
2212,0.144,0.072,0.697
2213,0.141,0.079,0.639
2214,0.126,0.088,0.616
2215,0.102,0.097,0.634
2216,0.074,0.105,0.69
2217,0.05,0.115,0.776
2218,0.034,0.132,0.88
2219,0.026,0.155,0.992
2220,0.025,0.177,1.101
2221,0.024,0.191,1.195
2222,0.019,0.19,1.263
2223,0.007,0.174,1.294
2224,-0.009,0.146,1.283
2225,-0.023,0.111,1.233
2226,-0.025,0.072,1.153
2227,-0.009,0.032,1.059
2228,0.027,-0.002,0.97
2229,0.074,-0.025,0.905
2230,0.124,-0.031,0.877
2231,0.166,-0.02,0.891
2232,0.197,0.006,0.942
2233,0.214,0.035,1.013
2234,0.221,0.059,1.085
2235,0.221,0.072,1.145
2236,0.218,0.074,1.185
2237,0.21,0.07,1.205
2238,0.198,0.067,1.209
2239,0.181,0.072,1.201
2240,0.16,0.085,1.185
2241,0.139,0.107,1.162
2242,0.123,0.131,1.136
2243,0.118,0.152,1.115
2244,0.124,0.161,1.103
2245,0.14,0.156,1.106
2246,0.156,0.136,1.124
2247,0.165,0.106,1.154
2248,0.165,0.077,1.191
2249,0.155,0.055,1.227
2250,0.143,0.048,1.253
2251,0.136,0.058,1.266
2252,0.139,0.079,1.264
2253,0.149,0.105,1.254
2254,0.16,0.123,1.244
2255,0.162,0.13,1.238
2256,0.149,0.124,1.24
2257,0.122,0.112,1.247
2258,0.09,0.098,1.251
2259,0.067,0.084,1.245
2260,0.065,0.072,1.225
2261,0.086,0.063,1.196
2262,0.122,0.058,1.163
2263,0.16,0.061,1.136
2264,0.185,0.075,1.118
2265,0.189,0.096,1.111
2266,0.173,0.117,1.109
2267,0.142,0.131,1.107
2268,0.106,0.135,1.1
2269,0.075,0.131,1.084
2270,0.052,0.125,1.059
2271,0.037,0.123,1.025
2272,0.027,0.124,0.984
2273,0.02,0.124,0.936
2274,0.016,0.118,0.884
2275,0.016,0.103,0.832
2276,0.023,0.079,0.788
2277,0.035,0.05,0.76
2278,0.05,0.019,0.759
2279,0.061,-0.01,0.791
2280,0.065,-0.034,0.855
2281,0.062,-0.049,0.943
2282,0.055,-0.056,1.038
2283,0.052,-0.054,1.123
2284,0.061,-0.046,1.182
2285,0.08,-0.035,1.206
2286,0.104,-0.025,1.196
2287,0.12,-0.017,1.157
2288,0.115,-0.009,1.099
2289,0.084,0.001,1.034
2290,0.033,0.016,0.969
2291,-0.02,0.035,0.909
2292,-0.057,0.054,0.857
2293,-0.062,0.064,0.816
2294,-0.032,0.06,0.788
2295,0.025,0.039,0.78
2296,0.096,0.007,0.794
2297,0.161,-0.025,0.83
2298,0.208,-0.045,0.882
2299,0.231,-0.046,0.941
2300,0.23,-0.028,0.999
2301,0.208,0.005,1.05
2302,0.171,0.044,1.089
2303,0.121,0.082,1.116
2304,0.063,0.114,1.131
2305,0.002,0.138,1.132
2306,-0.056,0.152,1.118
2307,-0.102,0.156,1.084
2308,-0.127,0.153,1.027
2309,-0.128,0.142,0.95
2310,-0.109,0.128,0.857
2311,-0.077,0.113,0.76
2312,-0.044,0.095,0.677
2313,-0.018,0.074,0.622
2314,-0.004,0.049,0.609
2315,0,0.025,0.64
2316,0.002,0.008,0.714
2317,0.006,0.005,0.826
2318,0.017,0.017,0.964
2319,0.034,0.039,1.114
2320,0.053,0.063,1.258
2321,0.069,0.082,1.377
2322,0.083,0.096,1.451
2323,0.097,0.108,1.47
2324,0.117,0.121,1.43
2325,0.147,0.139,1.339
2326,0.179,0.158,1.214
2327,0.205,0.173,1.079
2328,0.214,0.179,0.956
2329,0.201,0.175,0.862
2330,0.166,0.161,0.805
2331,0.12,0.139,0.786
2332,0.071,0.114,0.801
2333,0.029,0.088,0.844
2334,-0.003,0.064,0.907
2335,-0.024,0.044,0.981
2336,-0.036,0.028,1.058
2337,-0.04,0.014,1.128
2338,-0.036,0.001,1.179
2339,-0.025,-0.014,1.204
2340,-0.006,-0.029,1.2
2341,0.019,-0.04,1.169
2342,0.045,-0.042,1.121
2343,0.065,-0.034,1.063
2344,0.077,-0.017,1.005
2345,0.08,0.004,0.951
2346,0.077,0.027,0.906
2347,0.072,0.047,0.876
2348,0.065,0.062,0.865
2349,0.056,0.07,0.876
2350,0.044,0.068,0.906
2351,0.029,0.056,0.95
2352,0.015,0.034,0.996
2353,0.007,0.009,1.036
2354,0.011,-0.013,1.06
2355,0.033,-0.026,1.064
2356,0.071,-0.028,1.046
2357,0.117,-0.02,1.007
2358,0.162,-0.005,0.953
2359,0.194,0.012,0.892
2360,0.205,0.029,0.833
2361,0.193,0.044,0.785
2362,0.16,0.059,0.758
2363,0.113,0.076,0.758
2364,0.062,0.097,0.792
2365,0.01,0.124,0.857
2366,-0.037,0.154,0.948
2367,-0.08,0.184,1.051
2368,-0.112,0.212,1.147
2369,-0.129,0.231,1.218
2370,-0.124,0.233,1.248
2371,-0.098,0.215,1.228
2372,-0.054,0.176,1.16
2373,-0.002,0.126,1.055
2374,0.046,0.081,0.93
2375,0.076,0.056,0.803
2376,0.082,0.059,0.689
2377,0.066,0.086,0.597
2378,0.036,0.124,0.535
2379,0.005,0.16,0.506
2380,-0.018,0.187,0.514
2381,-0.028,0.204,0.561
2382,-0.027,0.212,0.646
2383,-0.02,0.213,0.763
2384,-0.014,0.209,0.895
2385,-0.006,0.199,1.023
2386,0.01,0.182,1.124
2387,0.039,0.16,1.185
2388,0.083,0.136,1.196
2389,0.133,0.114,1.164
2390,0.176,0.094,1.103
2391,0.198,0.076,1.031
2392,0.189,0.061,0.963
2393,0.151,0.052,0.906
2394,0.094,0.055,0.866
2395,0.036,0.077,0.843
2396,-0.005,0.115,0.84
2397,-0.023,0.161,0.86
2398,-0.024,0.205,0.903
2399,-0.02,0.234,0.963
2400,-0.025,0.244,1.03
2401,-0.039,0.239,1.087
2402,-0.056,0.222,1.119
2403,-0.064,0.197,1.118
2404,-0.051,0.17,1.084
2405,-0.019,0.143,1.027
2406,0.021,0.125,0.963
2407,0.053,0.119,0.908
2408,0.064,0.129,0.874
2409,0.053,0.151,0.866
2410,0.024,0.177,0.884
2411,-0.01,0.194,0.92
2412,-0.039,0.195,0.967
2413,-0.056,0.176,1.016
2414,-0.056,0.141,1.061
2415,-0.042,0.099,1.096
2416,-0.016,0.06,1.115
2417,0.017,0.03,1.116
2418,0.054,0.013,1.098
2419,0.09,0.007,1.07
2420,0.121,0.006,1.04
2421,0.142,0.006,1.02
2422,0.15,0.005,1.015
2423,0.144,0.007,1.03
2424,0.129,0.016,1.062
2425,0.109,0.034,1.107
2426,0.089,0.059,1.155
2427,0.073,0.085,1.193
2428,0.064,0.11,1.21
2429,0.059,0.132,1.2
2430,0.054,0.15,1.161
2431,0.045,0.164,1.1
2432,0.027,0.172,1.026
2433,0.001,0.169,0.951
2434,-0.034,0.155,0.882
2435,-0.073,0.134,0.829
2436,-0.108,0.113,0.795
2437,-0.132,0.097,0.784
2438,-0.143,0.088,0.797
2439,-0.139,0.086,0.832
2440,-0.124,0.089,0.882
2441,-0.105,0.096,0.942
2442,-0.086,0.107,1.003
2443,-0.071,0.122,1.06
2444,-0.06,0.136,1.108
2445,-0.054,0.145,1.139
2446,-0.051,0.146,1.148
2447,-0.049,0.139,1.131
2448,-0.044,0.126,1.088
2449,-0.035,0.113,1.025
2450,-0.022,0.103,0.953
2451,-0.006,0.095,0.88
2452,0.008,0.089,0.815
2453,0.02,0.083,0.765
2454,0.025,0.076,0.732
2455,0.027,0.073,0.72
2456,0.027,0.077,0.729
2457,0.03,0.087,0.756
2458,0.039,0.101,0.796
2459,0.053,0.115,0.842
2460,0.069,0.128,0.89
2461,0.081,0.137,0.935
2462,0.085,0.142,0.975
2463,0.078,0.145,1.006
2464,0.062,0.146,1.025
2465,0.044,0.148,1.03
2466,0.028,0.15,1.022
2467,0.017,0.153,1.003
2468,0.009,0.154,0.981
2469,0,0.151,0.962
2470,-0.017,0.141,0.953
2471,-0.042,0.123,0.956
2472,-0.072,0.096,0.969
2473,-0.098,0.063,0.989
2474,-0.11,0.029,1.014
2475,-0.099,0.001,1.037
2476,-0.063,-0.017,1.053
2477,-0.008,-0.024,1.061
2478,0.056,-0.02,1.057
2479,0.118,-0.01,1.043
2480,0.168,0.004,1.021
2481,0.201,0.018,0.995
2482,0.214,0.032,0.967
2483,0.21,0.048,0.942
2484,0.192,0.065,0.919
2485,0.166,0.08,0.9
2486,0.134,0.092,0.885
2487,0.099,0.103,0.875
2488,0.066,0.114,0.867
2489,0.038,0.126,0.863
2490,0.015,0.136,0.86
2491,0,0.138,0.863
2492,-0.01,0.128,0.87
2493,-0.015,0.106,0.88
2494,-0.018,0.08,0.895
2495,-0.018,0.057,0.912
2496,-0.013,0.046,0.932
2497,-0.002,0.044,0.952
2498,0.015,0.049,0.97
2499,0.036,0.055,0.986
2500,0.056,0.06,1.001
2501,0.07,0.068,1.015
2502,0.072,0.082,1.031
2503,0.059,0.1,1.048
2504,0.036,0.118,1.065
2505,0.009,0.131,1.079
2506,-0.014,0.135,1.085
2507,-0.026,0.128,1.08
2508,-0.022,0.109,1.063
2509,-0.004,0.082,1.033
2510,0.026,0.051,0.993
2511,0.064,0.024,0.947
2512,0.106,0.003,0.9
2513,0.148,-0.008,0.856
2514,0.185,-0.01,0.822
2515,0.214,-0.006,0.8
2516,0.23,0.005,0.792
2517,0.233,0.02,0.801
2518,0.221,0.042,0.825
2519,0.197,0.068,0.863
2520,0.16,0.097,0.908
2521,0.113,0.123,0.951
2522,0.064,0.14,0.984
2523,0.018,0.144,0.999
2524,-0.014,0.133,0.992
2525,-0.027,0.11,0.961
2526,-0.021,0.084,0.913
2527,0.001,0.061,0.86
2528,0.029,0.048,0.817
2529,0.053,0.043,0.798
2530,0.063,0.041,0.809
2531,0.057,0.039,0.849
2532,0.035,0.036,0.913
2533,0.003,0.038,0.992
2534,-0.031,0.048,1.078
2535,-0.062,0.066,1.157
2536,-0.085,0.087,1.218
2537,-0.1,0.103,1.249
2538,-0.103,0.111,1.241
2539,-0.095,0.108,1.19
2540,-0.074,0.095,1.102
2541,-0.043,0.073,0.988
2542,-0.005,0.041,0.867
2543,0.036,0.004,0.756
2544,0.078,-0.035,0.671
2545,0.116,-0.068,0.628
2546,0.148,-0.087,0.633
2547,0.173,-0.093,0.687
2548,0.19,-0.089,0.778
2549,0.201,-0.076,0.89
2550,0.206,-0.054,1.004
2551,0.205,-0.023,1.107
2552,0.198,0.02,1.189
2553,0.181,0.069,1.242
2554,0.153,0.119,1.261
2555,0.117,0.157,1.241
2556,0.079,0.177,1.177
2557,0.046,0.176,1.073
2558,0.023,0.16,0.943
2559,0.012,0.134,0.803
2560,0.012,0.108,0.678
2561,0.016,0.086,0.589
2562,0.014,0.072,0.553
2563,0.001,0.069,0.577
2564,-0.028,0.073,0.657
2565,-0.066,0.079,0.78
2566,-0.101,0.082,0.921
2567,-0.119,0.077,1.054
2568,-0.112,0.067,1.16
2569,-0.08,0.06,1.226
2570,-0.033,0.066,1.249
2571,0.016,0.092,1.233
2572,0.056,0.14,1.182
2573,0.081,0.202,1.104
2574,0.089,0.267,1.006
2575,0.083,0.316,0.899
2576,0.067,0.333,0.8
2577,0.044,0.306,0.725
2578,0.02,0.236,0.685
2579,0.003,0.136,0.684
2580,0.003,0.033,0.723
2581,0.033,-0.049,0.795
2582,0.097,-0.095,0.892
2583,0.193,-0.104,1.006
2584,0.309,-0.085,1.129
2585,0.425,-0.047,1.252
2586,0.52,0,1.366
2587,0.578,0.053,1.458
2588,0.591,0.106,1.52
2589,0.56,0.155,1.545
2590,0.494,0.199,1.525
2591,0.405,0.235,1.461
2592,0.305,0.266,1.358
2593,0.202,0.289,1.229
2594,0.104,0.3,1.093
2595,0.019,0.294,0.965
2596,-0.046,0.271,0.86
2597,-0.085,0.236,0.795
2598,-0.093,0.198,0.783
2599,-0.071,0.165,0.835
2600,-0.027,0.137,0.945
2601,0.028,0.109,1.099
2602,0.083,0.078,1.277
2603,0.128,0.047,1.451
2604,0.156,0.02,1.597
2605,0.166,0.004,1.691
2606,0.162,0.005,1.717
2607,0.146,0.022,1.674
2608,0.125,0.052,1.569
2609,0.096,0.088,1.425
2610,0.058,0.12,1.27
2611,0.007,0.136,1.13
2612,-0.057,0.128,1.025
2613,-0.123,0.092,0.96
2614,-0.173,0.033,0.929
2615,-0.189,-0.034,0.92
2616,-0.157,-0.09,0.92
2617,-0.08,-0.125,0.921
2618,0.023,-0.135,0.919
2619,0.123,-0.128,0.918
2620,0.189,-0.116,0.923
2621,0.199,-0.111,0.938
2622,0.15,-0.119,0.962
2623,0.055,-0.135,0.989
2624,-0.061,-0.15,1.009
2625,-0.168,-0.154,1.014
2626,-0.247,-0.143,0.998
2627,-0.288,-0.12,0.957
2628,-0.295,-0.09,0.895
2629,-0.279,-0.063,0.818
2630,-0.254,-0.048,0.734
2631,-0.231,-0.045,0.654
2632,-0.216,-0.055,0.588
2633,-0.209,-0.072,0.544
2634,-0.208,-0.092,0.529
2635,-0.212,-0.109,0.545
2636,-0.213,-0.119,0.591
2637,-0.205,-0.118,0.662
2638,-0.177,-0.101,0.745
2639,-0.127,-0.068,0.826
2640,-0.055,-0.018,0.888
2641,0.03,0.045,0.92
2642,0.113,0.113,0.917
2643,0.179,0.177,0.88
2644,0.22,0.229,0.811
2645,0.235,0.265,0.718
2646,0.229,0.287,0.612
2647,0.213,0.297,0.507
2648,0.194,0.3,0.417
2649,0.175,0.296,0.357
2650,0.159,0.284,0.339
2651,0.143,0.261,0.374
2652,0.126,0.225,0.457
2653,0.11,0.177,0.577
2654,0.099,0.127,0.713
2655,0.1,0.086,0.851
2656,0.121,0.06,0.979
2657,0.163,0.054,1.088
2658,0.221,0.067,1.176
2659,0.281,0.095,1.249
2660,0.322,0.134,1.314
2661,0.332,0.176,1.38
2662,0.304,0.212,1.449
2663,0.245,0.236,1.516
2664,0.175,0.248,1.572
2665,0.114,0.251,1.601
2666,0.08,0.246,1.593
2667,0.084,0.235,1.54
2668,0.124,0.214,1.452
2669,0.189,0.183,1.347
2670,0.257,0.146,1.252
2671,0.31,0.109,1.189
2672,0.332,0.082,1.168
2673,0.321,0.069,1.188
2674,0.283,0.066,1.238
2675,0.237,0.069,1.303
2676,0.197,0.072,1.368
2677,0.174,0.077,1.415
2678,0.168,0.085,1.435
2679,0.172,0.098,1.424
2680,0.174,0.115,1.385
2681,0.161,0.131,1.327
2682,0.128,0.137,1.26
2683,0.08,0.126,1.189
2684,0.025,0.097,1.121
2685,-0.028,0.057,1.06
2686,-0.073,0.014,1.012
2687,-0.108,-0.025,0.981
2688,-0.135,-0.06,0.966
2689,-0.155,-0.096,0.962
2690,-0.169,-0.134,0.958
2691,-0.177,-0.17,0.937
2692,-0.175,-0.196,0.886
2693,-0.165,-0.201,0.797
2694,-0.152,-0.181,0.671
2695,-0.148,-0.136,0.522
2696,-0.164,-0.076,0.369
2697,-0.205,-0.014,0.237
2698,-0.272,0.036,0.141
2699,-0.359,0.066,0.089
2700,-0.453,0.078,0.078
2701,-0.534,0.081,0.102
2702,-0.58,0.082,0.144
2703,-0.575,0.082,0.195
2704,-0.519,0.076,0.249
2705,-0.422,0.05,0.304
2706,-0.31,-0.004,0.364
2707,-0.209,-0.081,0.432
2708,-0.134,-0.166,0.506
2709,-0.088,-0.238,0.578
2710,-0.059,-0.279,0.639
2711,-0.029,-0.278,0.682
2712,0.014,-0.238,0.706
2713,0.075,-0.173,0.709
2714,0.143,-0.098,0.697
2715,0.201,-0.028,0.677
2716,0.234,0.029,0.657
2717,0.232,0.073,0.64
2718,0.196,0.105,0.629
2719,0.138,0.128,0.624
2720,0.077,0.146,0.628
2721,0.022,0.156,0.644
2722,-0.022,0.159,0.682
2723,-0.052,0.15,0.75
2724,-0.063,0.121,0.852
2725,-0.048,0.073,0.986
2726,-0.008,0.013,1.144
2727,0.056,-0.046,1.316
2728,0.132,-0.087,1.488
2729,0.203,-0.105,1.644
2730,0.25,-0.096,1.762
2731,0.255,-0.07,1.826
2732,0.219,-0.037,1.83
2733,0.158,-0.011,1.768
2734,0.098,0.001,1.649
2735,0.063,0.001,1.491
2736,0.061,-0.002,1.321
2737,0.088,0.003,1.17
2738,0.128,0.019,1.062
2739,0.163,0.043,1.012
2740,0.18,0.067,1.02
2741,0.178,0.085,1.078
2742,0.166,0.097,1.166
2743,0.154,0.109,1.262
2744,0.154,0.125,1.348
2745,0.164,0.145,1.412
2746,0.176,0.166,1.45
2747,0.174,0.182,1.464
2748,0.146,0.188,1.458
2749,0.088,0.181,1.43
2750,0.012,0.154,1.377
2751,-0.061,0.106,1.294
2752,-0.105,0.039,1.181
2753,-0.105,-0.037,1.044
2754,-0.059,-0.105,0.898
2755,0.018,-0.149,0.763
2756,0.102,-0.16,0.658
2757,0.171,-0.14,0.6
2758,0.208,-0.103,0.598
2759,0.208,-0.065,0.648
2760,0.175,-0.034,0.74
2761,0.121,-0.007,0.855
2762,0.055,0.024,0.968
2763,-0.01,0.066,1.06
2764,-0.064,0.117,1.115
2765,-0.101,0.167,1.124
2766,-0.118,0.202,1.086
2767,-0.113,0.208,1.005
2768,-0.091,0.178,0.888
2769,-0.055,0.119,0.747
2770,-0.007,0.046,0.596
2771,0.052,-0.026,0.455
2772,0.121,-0.083,0.343
2773,0.198,-0.115,0.279
2774,0.273,-0.123,0.274
2775,0.338,-0.112,0.326
2776,0.383,-0.087,0.421
2777,0.405,-0.052,0.542
2778,0.408,-0.011,0.668
2779,0.393,0.035,0.782
2780,0.361,0.085,0.87
2781,0.31,0.138,0.924
2782,0.238,0.189,0.942
2783,0.146,0.229,0.925
2784,0.036,0.25,0.877
2785,-0.083,0.251,0.806
2786,-0.196,0.238,0.719
2787,-0.286,0.218,0.627
2788,-0.339,0.195,0.543
2789,-0.348,0.168,0.482
2790,-0.318,0.135,0.463
2791,-0.267,0.099,0.498
2792,-0.216,0.066,0.59
2793,-0.182,0.046,0.731
2794,-0.169,0.047,0.902
2795,-0.17,0.071,1.078
2796,-0.172,0.115,1.236
2797,-0.167,0.17,1.356
2798,-0.154,0.222,1.427
2799,-0.143,0.26,1.445
2800,-0.143,0.279,1.415
2801,-0.156,0.277,1.344
2802,-0.171,0.254,1.243
2803,-0.173,0.212,1.125
2804,-0.147,0.157,1.005
2805,-0.086,0.095,0.898
2806,0,0.036,0.819
2807,0.096,-0.014,0.778
2808,0.18,-0.053,0.778
2809,0.233,-0.084,0.818
2810,0.249,-0.11,0.888
2811,0.231,-0.134,0.981
2812,0.192,-0.157,1.088
2813,0.145,-0.175,1.202
2814,0.103,-0.182,1.314
2815,0.072,-0.172,1.416
2816,0.054,-0.145,1.497
2817,0.046,-0.106,1.543
2818,0.049,-0.063,1.548
2819,0.058,-0.026,1.512
2820,0.067,-0.006,1.44
2821,0.071,-0.007,1.343
2822,0.065,-0.027,1.234
2823,0.051,-0.06,1.128
2824,0.037,-0.095,1.043
2825,0.034,-0.121,0.989
2826,0.049,-0.131,0.972
2827,0.088,-0.121,0.991
2828,0.147,-0.099,1.04
2829,0.215,-0.071,1.11
2830,0.281,-0.046,1.188
2831,0.335,-0.027,1.263
2832,0.371,-0.015,1.321
2833,0.388,-0.004,1.348
2834,0.392,0.01,1.335
2835,0.39,0.031,1.277
2836,0.392,0.059,1.18
2837,0.402,0.089,1.058
2838,0.418,0.114,0.93
2839,0.431,0.127,0.815
2840,0.434,0.125,0.729
2841,0.416,0.113,0.684
2842,0.375,0.099,0.684
2843,0.31,0.09,0.73
2844,0.23,0.089,0.817
2845,0.143,0.099,0.928
2846,0.063,0.115,1.046
2847,0.001,0.136,1.149
2848,-0.036,0.158,1.222
2849,-0.045,0.178,1.252
2850,-0.029,0.197,1.233
2851,0.002,0.217,1.165
2852,0.036,0.237,1.055
2853,0.059,0.255,0.912
2854,0.062,0.268,0.749
2855,0.039,0.275,0.581
2856,-0.011,0.277,0.432
2857,-0.082,0.274,0.324
2858,-0.165,0.265,0.28
2859,-0.244,0.245,0.315
2860,-0.302,0.205,0.432
2861,-0.322,0.144,0.62
2862,-0.294,0.066,0.86
2863,-0.22,-0.015,1.127
2864,-0.111,-0.082,1.391
2865,0.009,-0.126,1.62
2866,0.118,-0.14,1.785
2867,0.196,-0.127,1.861
2868,0.233,-0.097,1.836
2869,0.229,-0.06,1.71
2870,0.193,-0.025,1.501
2871,0.14,0.003,1.24
2872,0.079,0.025,0.962
2873,0.013,0.042,0.701
2874,-0.061,0.057,0.486
2875,-0.145,0.071,0.333
2876,-0.236,0.085,0.247
2877,-0.323,0.095,0.225
2878,-0.387,0.1,0.253
2879,-0.413,0.097,0.322
2880,-0.395,0.083,0.423
2881,-0.34,0.057,0.552
2882,-0.262,0.021,0.703
2883,-0.175,-0.024,0.872
2884,-0.092,-0.069,1.048
2885,-0.017,-0.108,1.22
2886,0.052,-0.131,1.371
2887,0.121,-0.136,1.489
2888,0.195,-0.123,1.562
2889,0.274,-0.096,1.585
2890,0.349,-0.062,1.563
2891,0.408,-0.027,1.501
2892,0.443,0.002,1.41
2893,0.453,0.019,1.304
2894,0.444,0.021,1.198
2895,0.427,0.007,1.107
2896,0.406,-0.018,1.04
2897,0.379,-0.045,1.001
2898,0.342,-0.062,0.989
2899,0.294,-0.061,0.999
2900,0.235,-0.039,1.023
2901,0.176,-0.005,1.049
2902,0.126,0.03,1.068
2903,0.095,0.056,1.071
2904,0.087,0.067,1.057
2905,0.097,0.063,1.027
2906,0.116,0.049,0.993
2907,0.13,0.031,0.963
2908,0.129,0.012,0.944
2909,0.111,-0.006,0.941
2910,0.079,-0.022,0.954
2911,0.043,-0.037,0.982
2912,0.012,-0.052,1.027
2913,-0.005,-0.067,1.087
2914,-0.003,-0.082,1.156
2915,0.017,-0.099,1.227
2916,0.054,-0.112,1.291
2917,0.102,-0.115,1.337
2918,0.152,-0.101,1.358
2919,0.195,-0.066,1.352
2920,0.219,-0.015,1.323
2921,0.212,0.042,1.278
2922,0.167,0.094,1.227
2923,0.083,0.129,1.177
2924,-0.028,0.143,1.134
2925,-0.147,0.132,1.098
2926,-0.248,0.1,1.067
2927,-0.306,0.05,1.039
2928,-0.304,-0.008,1.01
2929,-0.238,-0.065,0.977
2930,-0.119,-0.114,0.938
2931,0.029,-0.149,0.899
2932,0.178,-0.168,0.864
2933,0.302,-0.17,0.843
2934,0.381,-0.156,0.842
2935,0.407,-0.129,0.865
2936,0.383,-0.095,0.909
2937,0.317,-0.059,0.967
2938,0.227,-0.024,1.025
2939,0.13,0.006,1.07
2940,0.043,0.029,1.088
2941,-0.023,0.044,1.072
2942,-0.061,0.052,1.022
2943,-0.071,0.054,0.944
2944,-0.056,0.05,0.848
2945,-0.024,0.039,0.747
2946,0.015,0.023,0.651
2947,0.051,0.003,0.575
2948,0.075,-0.017,0.531
2949,0.084,-0.033,0.528
2950,0.081,-0.042,0.569
2951,0.069,-0.041,0.651
2952,0.049,-0.03,0.762
2953,0.025,-0.011,0.888
2954,-0.003,0.013,1.011
2955,-0.035,0.037,1.116
2956,-0.068,0.056,1.19
2957,-0.095,0.068,1.224
2958,-0.109,0.067,1.211
2959,-0.102,0.055,1.152
2960,-0.07,0.033,1.054
2961,-0.017,0.008,0.929
2962,0.048,-0.017,0.794
2963,0.116,-0.037,0.665
2964,0.177,-0.051,0.557
2965,0.225,-0.058,0.484
2966,0.257,-0.059,0.452
2967,0.274,-0.052,0.466
2968,0.273,-0.036,0.521
2969,0.256,-0.013,0.611
2970,0.223,0.016,0.723
2971,0.178,0.047,0.844
2972,0.127,0.073,0.959
2973,0.077,0.091,1.057
2974,0.033,0.099,1.128
2975,-0.002,0.099,1.164
2976,-0.025,0.096,1.162
2977,-0.032,0.097,1.124
2978,-0.027,0.104,1.057
2979,-0.016,0.115,0.973
2980,-0.007,0.125,0.888
2981,-0.007,0.129,0.816
2982,-0.02,0.125,0.77
2983,-0.046,0.114,0.758
2984,-0.082,0.104,0.783
2985,-0.124,0.099,0.843
2986,-0.164,0.105,0.933
2987,-0.194,0.119,1.042
2988,-0.21,0.137,1.155
2989,-0.21,0.148,1.255
2990,-0.193,0.147,1.323
2991,-0.158,0.132,1.344
2992,-0.104,0.108,1.312
2993,-0.035,0.084,1.23
2994,0.042,0.066,1.113
2995,0.116,0.056,0.982
2996,0.177,0.05,0.86
2997,0.215,0.043,0.767
2998,0.229,0.032,0.716
2999,0.222,0.018,0.711
3000,0.202,0.004,0.749
3001,0.179,-0.008,0.818
3002,0.159,-0.013,0.908
3003,0.146,-0.01,1.005
3004,0.138,0,1.098
3005,0.134,0.017,1.175
3006,0.13,0.034,1.227
3007,0.127,0.046,1.245
3008,0.124,0.047,1.221
3009,0.125,0.037,1.155
3010,0.131,0.023,1.058
3011,0.134,0.012,0.946
3012,0.126,0.008,0.841
3013,0.096,0.012,0.76
3014,0.041,0.023,0.716
3015,-0.03,0.037,0.715
3016,-0.098,0.051,0.753
3017,-0.145,0.063,0.823
3018,-0.159,0.07,0.915
3019,-0.142,0.07,1.014
3020,-0.101,0.063,1.108
3021,-0.05,0.052,1.182
3022,0.001,0.043,1.228
3023,0.043,0.037,1.237
3024,0.073,0.038,1.211
3025,0.091,0.042,1.153
3026,0.098,0.045,1.071
3027,0.095,0.045,0.976
3028,0.086,0.042,0.879
3029,0.071,0.039,0.791
3030,0.058,0.038,0.722
3031,0.05,0.038,0.679
3032,0.049,0.04,0.663
3033,0.052,0.041,0.674
3034,0.055,0.04,0.708
3035,0.054,0.035,0.761
3036,0.049,0.028,0.822
3037,0.039,0.022,0.885
3038,0.025,0.021,0.938
3039,0.013,0.027,0.971
3040,0.004,0.039,0.977
3041,0.002,0.058,0.952
3042,0.003,0.079,0.9
3043,0.004,0.098,0.831
3044,-0.001,0.108,0.757
3045,-0.015,0.108,0.69
3046,-0.042,0.096,0.643
3047,-0.076,0.079,0.625
3048,-0.111,0.065,0.643
3049,-0.139,0.063,0.7
3050,-0.152,0.074,0.792
3051,-0.147,0.095,0.911
3052,-0.126,0.116,1.044
3053,-0.093,0.125,1.171
3054,-0.054,0.116,1.276
3055,-0.014,0.09,1.343
3056,0.022,0.055,1.361
3057,0.05,0.026,1.329
3058,0.068,0.013,1.251
3059,0.077,0.022,1.141
3060,0.077,0.048,1.017
3061,0.069,0.081,0.894
3062,0.054,0.113,0.784
3063,0.034,0.136,0.696
3064,0.014,0.146,0.636
3065,-0.002,0.144,0.612
3066,-0.014,0.132,0.627
3067,-0.019,0.115,0.68
3068,-0.017,0.096,0.763
3069,-0.008,0.081,0.865
3070,0.009,0.073,0.971
3071,0.033,0.07,1.068
3072,0.064,0.068,1.143
3073,0.099,0.064,1.187
3074,0.133,0.058,1.197
3075,0.16,0.054,1.175
3076,0.173,0.053,1.127
3077,0.17,0.057,1.063
3078,0.149,0.064,0.995
3079,0.115,0.072,0.931
3080,0.076,0.081,0.879
3081,0.039,0.091,0.845
3082,0.007,0.103,0.835
3083,-0.019,0.114,0.851
3084,-0.04,0.117,0.893
3085,-0.056,0.108,0.952
3086,-0.063,0.086,1.016
3087,-0.056,0.058,1.074
3088,-0.033,0.031,1.117
3089,0.003,0.013,1.141
3090,0.043,0.009,1.145
3091,0.08,0.016,1.131
3092,0.104,0.028,1.103
3093,0.115,0.041,1.065
3094,0.113,0.051,1.024
3095,0.102,0.055,0.988
3096,0.085,0.053,0.963
3097,0.065,0.044,0.951
3098,0.046,0.031,0.955
3099,0.032,0.015,0.97
3100,0.025,0,0.993
3101,0.027,-0.013,1.018
3102,0.037,-0.021,1.043
3103,0.053,-0.024,1.062
3104,0.07,-0.026,1.075
3105,0.084,-0.03,1.08
3106,0.091,-0.034,1.075
3107,0.088,-0.035,1.065
3108,0.076,-0.032,1.05
3109,0.057,-0.023,1.032
3110,0.035,-0.01,1.014
3111,0.014,0.003,0.995
3112,-0.004,0.014,0.977
3113,-0.017,0.019,0.96
3114,-0.025,0.018,0.945
3115,-0.029,0.013,0.93
3116,-0.032,0.004,0.915
3117,-0.032,-0.005,0.897
3118,-0.03,-0.011,0.873
3119,-0.025,-0.01,0.843
3120,-0.016,0.004,0.809
3121,-0.009,0.033,0.774
3122,-0.008,0.068,0.74
3123,-0.023,0.1,0.713
3124,-0.058,0.115,0.696
3125,-0.113,0.107,0.689
3126,-0.178,0.08,0.692
3127,-0.237,0.044,0.698
3128,-0.27,0.01,0.698
3129,-0.263,-0.011,0.685
3130,-0.213,-0.017,0.654
3131,-0.132,-0.006,0.614
3132,-0.042,0.015,0.574
3133,0.029,0.039,0.546
3134,0.062,0.058,0.539
3135,0.055,0.064,0.555
3136,0.016,0.054,0.589
3137,-0.035,0.033,0.631
3138,-0.074,0.005,0.67
3139,-0.084,-0.018,0.701
3140,-0.059,-0.031,0.725
3141,-0.005,-0.031,0.747
3142,0.06,-0.027,0.779
3143,0.116,-0.031,0.829
3144,0.151,-0.051,0.9
3145,0.163,-0.088,0.99
3146,0.161,-0.127,1.091
3147,0.163,-0.147,1.189
3148,0.186,-0.136,1.271
3149,0.239,-0.095,1.328
3150,0.314,-0.041,1.356
3151,0.388,0.007,1.362
3152,0.426,0.033,1.357
3153,0.402,0.031,1.348
3154,0.307,0.004,1.337
3155,0.163,-0.038,1.317
3156,0.015,-0.08,1.278
3157,-0.082,-0.105,1.215
3158,-0.092,-0.103,1.136
3159,-0.01,-0.071,1.064
3160,0.134,-0.02,1.025
3161,0.289,0.036,1.041
3162,0.403,0.082,1.114
3163,0.446,0.108,1.226
3164,0.418,0.114,1.344
3165,0.342,0.103,1.435
3166,0.252,0.081,1.476
3167,0.178,0.048,1.456
3168,0.133,0.007,1.382
3169,0.116,-0.035,1.27
3170,0.115,-0.065,1.147
3171,0.117,-0.07,1.039
3172,0.113,-0.049,0.968
3173,0.104,-0.014,0.947
3174,0.093,0.01,0.982
3175,0.082,0.004,1.063
3176,0.073,-0.035,1.176
3177,0.067,-0.092,1.301
3178,0.064,-0.139,1.413
3179,0.067,-0.152,1.485
3180,0.079,-0.12,1.497
3181,0.102,-0.052,1.436
3182,0.13,0.033,1.305
3183,0.149,0.111,1.127
3184,0.138,0.169,0.937
3185,0.081,0.195,0.775
3186,-0.027,0.191,0.672
3187,-0.17,0.162,0.64
3188,-0.308,0.115,0.669
3189,-0.396,0.066,0.735
3190,-0.393,0.027,0.808
3191,-0.289,0.008,0.862
3192,-0.106,0.008,0.884
3193,0.106,0.02,0.872
3194,0.288,0.029,0.831
3195,0.396,0.027,0.771
3196,0.412,0.016,0.699
3197,0.348,0.008,0.623
3198,0.238,0.02,0.55
3199,0.119,0.059,0.489
3200,0.018,0.117,0.447
3201,-0.047,0.178,0.431
3202,-0.074,0.222,0.447
3203,-0.069,0.238,0.497
3204,-0.04,0.229,0.581
3205,0.002,0.204,0.695
3206,0.052,0.174,0.83
3207,0.104,0.144,0.974
3208,0.157,0.115,1.112
3209,0.21,0.083,1.225
3210,0.262,0.049,1.297
3211,0.313,0.015,1.32
3212,0.362,-0.015,1.295
3213,0.406,-0.038,1.234
3214,0.437,-0.053,1.152
3215,0.446,-0.058,1.069
3216,0.426,-0.051,1.001
3217,0.379,-0.029,0.958
3218,0.312,0.009,0.943
3219,0.242,0.059,0.957
3220,0.184,0.111,1.003
3221,0.148,0.154,1.074
3222,0.137,0.176,1.165
3223,0.146,0.175,1.261
3224,0.166,0.158,1.351
3225,0.19,0.136,1.421
3226,0.215,0.119,1.461
3227,0.239,0.109,1.462
3228,0.259,0.103,1.424
3229,0.272,0.097,1.354
3230,0.273,0.09,1.27
3231,0.256,0.088,1.19
3232,0.221,0.095,1.13
3233,0.17,0.11,1.098
3234,0.109,0.129,1.094
3235,0.048,0.148,1.115
3236,-0.003,0.163,1.155
3237,-0.033,0.171,1.209
3238,-0.04,0.175,1.269
3239,-0.025,0.173,1.325
3240,0.001,0.165,1.368
3241,0.029,0.149,1.39
3242,0.052,0.126,1.384
3243,0.067,0.101,1.351
3244,0.076,0.081,1.298
3245,0.08,0.072,1.236
3246,0.077,0.078,1.179
3247,0.066,0.097,1.136
3248,0.047,0.116,1.107
3249,0.023,0.124,1.086
3250,-0.001,0.116,1.063
3251,-0.017,0.095,1.029
3252,-0.018,0.073,0.982
3253,-0.005,0.06,0.925
3254,0.019,0.059,0.868
3255,0.045,0.066,0.82
3256,0.064,0.073,0.787
3257,0.073,0.074,0.77
3258,0.072,0.07,0.763
3259,0.069,0.064,0.762
3260,0.071,0.06,0.763
3261,0.081,0.061,0.763
3262,0.096,0.067,0.766
3263,0.108,0.078,0.773
3264,0.11,0.093,0.787
3265,0.098,0.108,0.807
3266,0.076,0.121,0.827
3267,0.052,0.129,0.842
3268,0.037,0.128,0.851
3269,0.037,0.116,0.855
3270,0.054,0.092,0.859
3271,0.08,0.058,0.87
3272,0.107,0.018,0.895
3273,0.127,-0.022,0.936
3274,0.138,-0.052,0.993
3275,0.146,-0.066,1.06
3276,0.158,-0.057,1.132
3277,0.181,-0.029,1.205
3278,0.213,0.01,1.274
3279,0.248,0.047,1.336
3280,0.274,0.074,1.387
3281,0.279,0.085,1.423
3282,0.258,0.083,1.438
3283,0.213,0.073,1.425
3284,0.155,0.059,1.383
3285,0.095,0.045,1.313
3286,0.045,0.032,1.223
3287,0.006,0.019,1.125
3288,-0.022,0.007,1.035
3289,-0.046,-0.002,0.963
3290,-0.07,-0.007,0.917
3291,-0.091,-0.006,0.902
3292,-0.105,0.001,0.92
3293,-0.107,0.012,0.969
3294,-0.095,0.023,1.047
3295,-0.071,0.034,1.145
3296,-0.043,0.043,1.252
3297,-0.015,0.053,1.356
3298,0.01,0.064,1.445
3299,0.035,0.077,1.507
3300,0.062,0.092,1.531
3301,0.088,0.105,1.513
3302,0.109,0.115,1.456
3303,0.117,0.117,1.37
3304,0.108,0.108,1.271
3305,0.082,0.087,1.175
3306,0.044,0.062,1.094
3307,0.009,0.039,1.035
3308,-0.012,0.028,1
3309,-0.012,0.028,0.987
3310,0.006,0.038,0.993
3311,0.029,0.05,1.014
3312,0.044,0.057,1.045
3313,0.042,0.058,1.077
3314,0.024,0.056,1.101
3315,-0.001,0.057,1.108
3316,-0.018,0.065,1.092
3317,-0.015,0.082,1.054
3318,0.012,0.104,0.996
3319,0.057,0.125,0.927
3320,0.107,0.139,0.858
3321,0.149,0.141,0.802
3322,0.174,0.128,0.765
3323,0.182,0.104,0.748
3324,0.176,0.072,0.747
3325,0.169,0.04,0.755
3326,0.172,0.01,0.768
3327,0.192,-0.014,0.78
3328,0.232,-0.034,0.79
3329,0.284,-0.048,0.803
3330,0.335,-0.057,0.821
3331,0.374,-0.058,0.849
3332,0.387,-0.049,0.89
3333,0.368,-0.029,0.945
3334,0.317,-0.001,1.011
3335,0.239,0.03,1.083
3336,0.149,0.056,1.149
3337,0.062,0.069,1.194
3338,-0.01,0.067,1.209
3339,-0.058,0.057,1.184
3340,-0.083,0.046,1.121
3341,-0.092,0.04,1.026
3342,-0.098,0.045,0.914
3343,-0.115,0.057,0.804
3344,-0.151,0.071,0.716
3345,-0.208,0.082,0.666
3346,-0.278,0.087,0.661
3347,-0.343,0.088,0.7
3348,-0.38,0.088,0.774
3349,-0.37,0.092,0.865
3350,-0.302,0.104,0.951
3351,-0.185,0.123,1.013
3352,-0.041,0.139,1.041
3353,0.099,0.143,1.029
3354,0.207,0.127,0.978
3355,0.263,0.09,0.894
3356,0.262,0.04,0.792
3357,0.217,-0.011,0.694
3358,0.151,-0.052,0.622
3359,0.085,-0.074,0.594
3360,0.036,-0.073,0.622
3361,0.013,-0.049,0.709
3362,0.013,-0.007,0.845
3363,0.026,0.041,1.013
3364,0.041,0.085,1.19
3365,0.05,0.119,1.349
3366,0.048,0.14,1.465
3367,0.038,0.156,1.515
3368,0.022,0.172,1.486
3369,0.005,0.195,1.379
3370,-0.012,0.222,1.205
3371,-0.035,0.244,0.99
3372,-0.071,0.253,0.761
3373,-0.129,0.244,0.552
3374,-0.214,0.22,0.389
3375,-0.321,0.192,0.295
3376,-0.434,0.173,0.285
3377,-0.526,0.172,0.366
3378,-0.567,0.182,0.526
3379,-0.533,0.189,0.741
3380,-0.418,0.183,0.978
3381,-0.231,0.157,1.203
3382,-0.004,0.114,1.383
3383,0.225,0.064,1.496
3384,0.415,0.02,1.53
3385,0.539,-0.009,1.485
3386,0.584,-0.02,1.376
3387,0.559,-0.016,1.221
3388,0.487,-0.002,1.045
3389,0.395,0.019,0.875
3390,0.302,0.042,0.732
3391,0.219,0.068,0.636
3392,0.149,0.092,0.595
3393,0.091,0.113,0.609
3394,0.038,0.129,0.672
3395,-0.013,0.139,0.769
3396,-0.058,0.144,0.882
3397,-0.09,0.146,0.987
3398,-0.099,0.145,1.06
3399,-0.081,0.142,1.086
3400,-0.042,0.138,1.063
3401,-0.004,0.133,1.002
3402,0.012,0.129,0.922
3403,-0.011,0.124,0.845
3404,-0.075,0.118,0.789
3405,-0.167,0.109,0.765
3406,-0.26,0.095,0.775
3407,-0.325,0.076,0.816
3408,-0.342,0.056,0.88
3409,-0.308,0.042,0.963
3410,-0.231,0.038,1.058
3411,-0.135,0.044,1.156
3412,-0.044,0.054,1.246
3413,0.022,0.061,1.317
3414,0.051,0.062,1.356
3415,0.045,0.055,1.354
3416,0.012,0.044,1.308
3417,-0.033,0.034,1.226
3418,-0.078,0.028,1.121
3419,-0.114,0.029,1.009
3420,-0.141,0.04,0.904
3421,-0.164,0.06,0.821
3422,-0.19,0.088,0.768
3423,-0.224,0.12,0.749
3424,-0.265,0.149,0.76
3425,-0.301,0.166,0.792
3426,-0.32,0.168,0.835
3427,-0.313,0.154,0.878
3428,-0.279,0.127,0.913
3429,-0.224,0.093,0.935
3430,-0.158,0.059,0.942
3431,-0.091,0.036,0.935
3432,-0.031,0.026,0.918
3433,0.019,0.031,0.902
3434,0.057,0.047,0.896
3435,0.081,0.067,0.91
3436,0.092,0.083,0.949
3437,0.094,0.09,1.008
3438,0.093,0.085,1.075
3439,0.098,0.071,1.137
3440,0.111,0.054,1.184
3441,0.129,0.041,1.211
3442,0.147,0.036,1.22
3443,0.153,0.039,1.215
3444,0.144,0.047,1.2
3445,0.121,0.056,1.178
3446,0.091,0.064,1.149
3447,0.063,0.069,1.116
3448,0.044,0.071,1.081
3449,0.04,0.067,1.045
3450,0.046,0.055,1.008
3451,0.055,0.039,0.973
3452,0.059,0.024,0.943
3453,0.05,0.017,0.919
3454,0.025,0.022,0.901
3455,-0.01,0.039,0.888
3456,-0.045,0.061,0.879
3457,-0.072,0.081,0.872
3458,-0.081,0.095,0.868
3459,-0.07,0.102,0.869
3460,-0.043,0.103,0.88
3461,-0.004,0.102,0.902
3462,0.038,0.099,0.934
3463,0.081,0.092,0.97
3464,0.122,0.082,1.003
3465,0.16,0.069,1.033
3466,0.194,0.055,1.056
3467,0.223,0.042,1.075
3468,0.24,0.031,1.092
3469,0.242,0.024,1.107
3470,0.222,0.019,1.122
3471,0.181,0.014,1.135
3472,0.12,0.008,1.146
3473,0.049,-0.001,1.155
3474,-0.024,-0.013,1.164
3475,-0.09,-0.025,1.174
3476,-0.142,-0.034,1.184
3477,-0.176,-0.037,1.192
3478,-0.19,-0.03,1.194
3479,-0.184,-0.011,1.183
3480,-0.163,0.016,1.153
3481,-0.133,0.047,1.104
3482,-0.1,0.073,1.036
3483,-0.074,0.086,0.958
3484,-0.059,0.084,0.88
3485,-0.061,0.072,0.811
3486,-0.078,0.056,0.761
3487,-0.105,0.044,0.736
3488,-0.13,0.04,0.739
3489,-0.145,0.045,0.77
3490,-0.141,0.055,0.826
3491,-0.117,0.066,0.902
3492,-0.078,0.074,0.99
3493,-0.031,0.075,1.079
3494,0.016,0.07,1.157
3495,0.059,0.06,1.212
3496,0.098,0.049,1.233
3497,0.136,0.042,1.217
3498,0.173,0.042,1.168
3499,0.204,0.05,1.096
3500,0.223,0.067,1.014
3501,0.222,0.089,0.939
3502,0.199,0.111,0.881
3503,0.153,0.124,0.848
3504,0.094,0.123,0.841
3505,0.031,0.104,0.856
3506,-0.025,0.069,0.885
3507,-0.063,0.029,0.92
3508,-0.077,-0.006,0.955
3509,-0.067,-0.025,0.984
3510,-0.038,-0.024,1.007
3511,0.001,-0.002,1.022
3512,0.041,0.033,1.031
3513,0.073,0.069,1.036
3514,0.091,0.096,1.039
3515,0.094,0.104,1.037
3516,0.084,0.095,1.029
3517,0.07,0.076,1.015
3518,0.06,0.059,0.998
3519,0.058,0.055,0.981
3520,0.064,0.064,0.971
3521,0.073,0.084,0.972
3522,0.079,0.103,0.987
3523,0.079,0.116,1.015
3524,0.071,0.117,1.053
3525,0.061,0.106,1.096
3526,0.053,0.087,1.137
3527,0.054,0.064,1.17
3528,0.067,0.042,1.189
3529,0.092,0.026,1.189
3530,0.126,0.022,1.168
3531,0.161,0.029,1.124
3532,0.187,0.045,1.063
3533,0.195,0.063,0.997
3534,0.179,0.075,0.938
3535,0.138,0.08,0.895
3536,0.078,0.08,0.874
3537,0.01,0.08,0.874
3538,-0.052,0.082,0.892
3539,-0.093,0.085,0.919
3540,-0.106,0.086,0.951
3541,-0.09,0.079,0.981
3542,-0.054,0.062,1.005
3543,-0.01,0.039,1.022
3544,0.03,0.02,1.031
3545,0.058,0.009,1.035
3546,0.069,0.01,1.034
3547,0.067,0.02,1.028
3548,0.059,0.036,1.017
3549,0.049,0.052,1.002
3550,0.04,0.067,0.985
3551,0.034,0.081,0.971
3552,0.029,0.092,0.963
3553,0.022,0.102,0.965
3554,0.013,0.11,0.977
3555,0.002,0.119,0.997
3556,-0.009,0.128,1.021
3557,-0.016,0.134,1.045
3558,-0.017,0.136,1.062
3559,-0.008,0.131,1.068
3560,0.011,0.117,1.058
3561,0.04,0.096,1.031
3562,0.073,0.068,0.992
3563,0.104,0.038,0.948
3564,0.125,0.011,0.906
3565,0.133,-0.004,0.874
3566,0.129,-0.005,0.854
3567,0.119,0.013,0.847
3568,0.108,0.045,0.852
3569,0.102,0.086,0.867
3570,0.099,0.125,0.892
3571,0.096,0.154,0.923
3572,0.089,0.166,0.956
3573,0.074,0.158,0.985
3574,0.056,0.133,1.005
3575,0.04,0.097,1.015
3576,0.033,0.06,1.01
3577,0.04,0.031,0.993
3578,0.061,0.02,0.965
3579,0.091,0.029,0.933
3580,0.122,0.053,0.904
3581,0.146,0.082,0.883
3582,0.157,0.107,0.877
3583,0.152,0.122,0.886
3584,0.132,0.128,0.909
3585,0.102,0.126,0.944
3586,0.067,0.121,0.982
3587,0.032,0.113,1.018
3588,0.003,0.105,1.045
3589,-0.018,0.097,1.058
3590,-0.028,0.091,1.053
3591,-0.026,0.09,1.031
3592,-0.013,0.092,0.995
3593,0.007,0.093,0.955
3594,0.03,0.087,0.917
3595,0.051,0.074,0.889
3596,0.067,0.059,0.872
3597,0.078,0.047,0.867
3598,0.086,0.048,0.869
3599,0.092,0.064,0.877
3600,0.1,0.093,0.888
3601,0.105,0.128,0.901
3602,0.102,0.159,0.913
3603,0.083,0.179,0.926
3604,0.048,0.183,0.935
3605,0.004,0.17,0.936
3606,-0.037,0.143,0.929
3607,-0.059,0.105,0.91
3608,-0.056,0.066,0.885
3609,-0.027,0.037,0.857
3610,0.016,0.024,0.836
3611,0.06,0.03,0.828
3612,0.093,0.051,0.835
3613,0.109,0.078,0.854
3614,0.104,0.104,0.88
3615,0.082,0.124,0.909
3616,0.048,0.135,0.935
3617,0.007,0.136,0.955
3618,-0.033,0.13,0.966
3619,-0.063,0.121,0.965
3620,-0.079,0.112,0.952
3621,-0.077,0.107,0.929
3622,-0.059,0.104,0.902
3623,-0.032,0.102,0.878
3624,-0.003,0.096,0.861
3625,0.023,0.088,0.855
3626,0.042,0.079,0.859
3627,0.056,0.072,0.869
3628,0.067,0.067,0.881
3629,0.078,0.067,0.89
3630,0.09,0.072,0.894
3631,0.102,0.084,0.892
3632,0.109,0.106,0.885
3633,0.107,0.134,0.879
3634,0.094,0.164,0.876
3635,0.071,0.189,0.875
3636,0.042,0.199,0.874
3637,0.015,0.192,0.87
3638,-0.005,0.165,0.863
3639,-0.015,0.126,0.856
3640,-0.014,0.08,0.853
3641,-0.004,0.039,0.856
3642,0.012,0.012,0.867
3643,0.032,0.002,0.887
3644,0.052,0.009,0.914
3645,0.071,0.028,0.943
3646,0.089,0.05,0.97
3647,0.103,0.072,0.989
3648,0.112,0.091,0.997
3649,0.113,0.109,0.995
3650,0.103,0.123,0.983
3651,0.081,0.132,0.967
3652,0.051,0.134,0.947
3653,0.016,0.128,0.926
3654,-0.015,0.12,0.904
3655,-0.037,0.112,0.883
3656,-0.045,0.104,0.868
3657,-0.04,0.096,0.862
3658,-0.026,0.086,0.867
3659,-0.008,0.073,0.883
3660,0.009,0.06,0.905
3661,0.022,0.052,0.932
3662,0.029,0.05,0.96
3663,0.032,0.053,0.987
3664,0.03,0.061,1.01
3665,0.026,0.072,1.027
3666,0.02,0.086,1.036
3667,0.017,0.104,1.037
3668,0.017,0.123,1.029
3669,0.023,0.14,1.014
3670,0.03,0.15,0.995
3671,0.037,0.149,0.974
3672,0.041,0.136,0.954
3673,0.043,0.111,0.939
3674,0.045,0.079,0.933
3675,0.048,0.046,0.936
3676,0.056,0.02,0.948
3677,0.067,0.007,0.968
3678,0.079,0.01,0.992
3679,0.088,0.03,1.017
3680,0.09,0.059,1.043
3681,0.082,0.09,1.068
3682,0.062,0.114,1.087
3683,0.032,0.125,1.095
3684,-0.003,0.124,1.09
3685,-0.034,0.115,1.073
3686,-0.055,0.101,1.044
3687,-0.064,0.086,1.011
3688,-0.061,0.074,0.978
3689,-0.05,0.065,0.949
3690,-0.035,0.06,0.927
3691,-0.015,0.055,0.915
3692,0.006,0.049,0.914
3693,0.029,0.039,0.925
3694,0.053,0.026,0.95
3695,0.075,0.018,0.984
3696,0.096,0.023,1.022
3697,0.112,0.046,1.06
3698,0.124,0.086,1.094
3699,0.128,0.13,1.122
3700,0.123,0.164,1.141
3701,0.106,0.179,1.148
3702,0.079,0.171,1.141
3703,0.048,0.146,1.116
3704,0.021,0.112,1.074
3705,0.005,0.076,1.021
3706,0.003,0.043,0.964
3707,0.013,0.018,0.912
3708,0.032,0.002,0.874
3709,0.055,-0.005,0.855
3710,0.075,-0.005,0.86
3711,0.088,0.001,0.892
3712,0.093,0.01,0.948
3713,0.088,0.022,1.021
3714,0.076,0.035,1.1
3715,0.057,0.047,1.172
3716,0.036,0.058,1.223
3717,0.017,0.066,1.246
3718,0.003,0.07,1.237
3719,-0.004,0.074,1.2
3720,-0.003,0.078,1.145
3721,0,0.082,1.085
3722,0,0.081,1.033
3723,-0.006,0.075,1
3724,-0.018,0.061,0.989
3725,-0.03,0.042,0.999
3726,-0.034,0.023,1.022
3727,-0.025,0.006,1.052
3728,-0.001,-0.007,1.08
3729,0.034,-0.014,1.104
3730,0.069,-0.013,1.119
3731,0.094,0,1.125
3732,0.103,0.023,1.122
3733,0.097,0.051,1.11
3734,0.08,0.077,1.09
3735,0.057,0.095,1.067
3736,0.032,0.104,1.047
3737,0.008,0.104,1.034
3738,-0.015,0.097,1.031
3739,-0.035,0.084,1.037
3740,-0.049,0.068,1.048
3741,-0.053,0.05,1.059
3742,-0.045,0.034,1.066
3743,-0.027,0.02,1.068
3744,-0.003,0.01,1.065
3745,0.021,0.002,1.06
3746,0.043,-0.003,1.053
3747,0.06,-0.005,1.042
3748,0.072,-0.002,1.026
3749,0.079,0.008,1.006
3750,0.081,0.025,0.984
3751,0.079,0.047,0.964
3752,0.073,0.071,0.948
3753,0.061,0.093,0.938
3754,0.042,0.112,0.934
3755,0.017,0.128,0.933
3756,-0.009,0.14,0.932
3757,-0.029,0.146,0.926
3758,-0.037,0.142,0.912
3759,-0.031,0.129,0.893
3760,-0.011,0.111,0.871
3761,0.016,0.092,0.855
3762,0.043,0.078,0.849
3763,0.066,0.072,0.856
3764,0.082,0.074,0.874
3765,0.092,0.082,0.898
3766,0.098,0.095,0.923
3767,0.1,0.109,0.947
3768,0.096,0.121,0.968
3769,0.083,0.128,0.985
3770,0.063,0.124,0.994
3771,0.039,0.11,0.993
3772,0.018,0.09,0.979
3773,0.008,0.07,0.954
3774,0.011,0.057,0.921
3775,0.027,0.056,0.889
3776,0.052,0.064,0.867
3777,0.075,0.079,0.86
3778,0.088,0.095,0.87
3779,0.085,0.107,0.895
3780,0.065,0.114,0.929
3781,0.037,0.116,0.962
3782,0.009,0.115,0.988
3783,-0.009,0.114,1.001
3784,-0.013,0.113,1.003
3785,-0.007,0.112,0.996
3786,0.004,0.109,0.984
3787,0.013,0.1,0.971
3788,0.017,0.086,0.958
3789,0.017,0.07,0.947
3790,0.018,0.054,0.938
3791,0.025,0.044,0.933
3792,0.04,0.04,0.935
3793,0.059,0.043,0.943
3794,0.073,0.051,0.957
3795,0.077,0.061,0.972
3796,0.066,0.072,0.987
3797,0.043,0.084,0.999
3798,0.014,0.098,1.007
3799,-0.014,0.115,1.01
3800,-0.038,0.132,1.007
3801,-0.055,0.146,1
3802,-0.066,0.148,0.988
3803,-0.071,0.133,0.971
3804,-0.067,0.103,0.95
3805,-0.051,0.065,0.927
3806,-0.021,0.031,0.905
3807,0.021,0.013,0.89
3808,0.066,0.015,0.887
3809,0.107,0.037,0.896
3810,0.134,0.07,0.915
3811,0.142,0.11,0.937
3812,0.129,0.147,0.956
3813,0.097,0.173,0.968
3814,0.052,0.183,0.971
3815,0,0.172,0.963
3816,-0.047,0.146,0.943
3817,-0.082,0.112,0.91
3818,-0.094,0.083,0.87
3819,-0.081,0.067,0.831
3820,-0.047,0.065,0.805
3821,0,0.071,0.801
3822,0.046,0.079,0.823
3823,0.08,0.084,0.868
3824,0.095,0.086,0.928
3825,0.093,0.084,0.992
3826,0.082,0.08,1.047
3827,0.072,0.075,1.086
3828,0.071,0.072,1.104
3829,0.079,0.076,1.102
3830,0.09,0.092,1.082
3831,0.095,0.119,1.051
3832,0.092,0.148,1.014
3833,0.08,0.17,0.98
3834,0.061,0.177,0.952
3835,0.04,0.167,0.938
3836,0.019,0.144,0.94
3837,0.002,0.113,0.96
3838,-0.007,0.083,0.995
3839,-0.002,0.06,1.035
3840,0.019,0.052,1.068
3841,0.053,0.06,1.082
3842,0.093,0.082,1.075
3843,0.127,0.106,1.051
3844,0.142,0.124,1.018
3845,0.131,0.132,0.982
3846,0.094,0.13,0.948
3847,0.039,0.125,0.916
3848,-0.02,0.124,0.886
3849,-0.069,0.127,0.861
3850,-0.097,0.131,0.844
3851,-0.101,0.128,0.84
3852,-0.086,0.117,0.852
3853,-0.063,0.096,0.877
3854,-0.044,0.07,0.913
3855,-0.033,0.044,0.953
3856,-0.028,0.02,0.987
3857,-0.019,0.002,1.008
3858,-0.002,-0.006,1.012
3859,0.026,0.002,1.002
3860,0.057,0.025,0.985
3861,0.08,0.059,0.968
3862,0.085,0.097,0.96
3863,0.071,0.131,0.964
3864,0.043,0.157,0.98
3865,0.008,0.174,1.005
3866,-0.021,0.179,1.032
3867,-0.036,0.171,1.055
3868,-0.032,0.151,1.066
3869,-0.009,0.124,1.061
3870,0.024,0.095,1.041
3871,0.057,0.072,1.012
3872,0.079,0.055,0.985
3873,0.083,0.044,0.966
3874,0.071,0.035,0.959
3875,0.05,0.029,0.96
3876,0.029,0.028,0.966
3877,0.016,0.033,0.972
3878,0.012,0.046,0.971
3879,0.016,0.062,0.96
3880,0.023,0.079,0.939
3881,0.028,0.096,0.91
3882,0.03,0.109,0.876
3883,0.025,0.118,0.846
3884,0.015,0.121,0.826
3885,0.002,0.118,0.823
3886,-0.008,0.108,0.839
3887,-0.011,0.097,0.873
3888,-0.002,0.086,0.922
3889,0.016,0.079,0.979
3890,0.043,0.075,1.041
3891,0.073,0.072,1.1
3892,0.101,0.07,1.15
3893,0.123,0.068,1.184
3894,0.132,0.067,1.2
3895,0.129,0.068,1.198
3896,0.115,0.071,1.179
3897,0.096,0.075,1.147
3898,0.078,0.081,1.107
3899,0.063,0.09,1.066
3900,0.05,0.098,1.028
3901,0.039,0.102,0.997
3902,0.027,0.098,0.974
3903,0.016,0.088,0.958
3904,0.005,0.073,0.948
3905,-0.003,0.058,0.941
3906,-0.009,0.048,0.937
3907,-0.013,0.044,0.938
3908,-0.018,0.046,0.943
3909,-0.024,0.054,0.951
3910,-0.031,0.065,0.956
3911,-0.037,0.078,0.954
3912,-0.039,0.09,0.943
3913,-0.035,0.098,0.925
3914,-0.025,0.098,0.901
3915,-0.012,0.088,0.878
3916,0,0.07,0.862
3917,0.005,0.049,0.855
3918,0.005,0.027,0.861
3919,0.003,0.012,0.879
3920,0.006,0.006,0.906
3921,0.017,0.01,0.938
3922,0.04,0.024,0.972
3923,0.069,0.045,1.006
3924,0.095,0.068,1.039
3925,0.109,0.087,1.068
3926,0.106,0.1,1.09
3927,0.086,0.109,1.1
3928,0.058,0.117,1.094
3929,0.03,0.127,1.071
3930,0.01,0.14,1.035
3931,-0.002,0.152,0.991
3932,-0.009,0.156,0.946
3933,-0.016,0.148,0.905
3934,-0.025,0.129,0.872
3935,-0.033,0.102,0.85
3936,-0.034,0.074,0.84
3937,-0.023,0.053,0.844
3938,-0.001,0.044,0.861
3939,0.027,0.046,0.891
3940,0.051,0.058,0.929
3941,0.065,0.072,0.967
3942,0.068,0.083,0.996
3943,0.063,0.09,1.009
3944,0.056,0.097,1.003
3945,0.052,0.107,0.98
3946,0.052,0.12,0.946
3947,0.053,0.131,0.91
3948,0.048,0.133,0.879
3949,0.035,0.123,0.858
3950,0.016,0.102,0.85
3951,-0.002,0.08,0.852
3952,-0.013,0.062,0.864
3953,-0.009,0.051,0.885
3954,0.009,0.043,0.912
3955,0.036,0.035,0.942
3956,0.064,0.03,0.97
3957,0.087,0.029,0.993
3958,0.104,0.038,1.009
3959,0.114,0.056,1.019
3960,0.118,0.08,1.025
3961,0.116,0.105,1.03
3962,0.107,0.127,1.032
3963,0.087,0.146,1.032
3964,0.056,0.16,1.029
3965,0.018,0.165,1.022
3966,-0.021,0.153,1.008
3967,-0.052,0.12,0.985
3968,-0.067,0.074,0.954
3969,-0.06,0.024,0.921
3970,-0.032,-0.012,0.894
3971,0.007,-0.028,0.882
3972,0.047,-0.021,0.891
3973,0.075,0.001,0.923
3974,0.084,0.029,0.971
3975,0.075,0.055,1.024
3976,0.056,0.075,1.072
3977,0.037,0.087,1.105
3978,0.024,0.091,1.118
3979,0.018,0.088,1.108
3980,0.016,0.08,1.075
3981,0.013,0.072,1.025
3982,0.007,0.068,0.964
3983,0.001,0.07,0.903
3984,-0.004,0.076,0.85
3985,-0.003,0.081,0.812
3986,0.004,0.079,0.795
3987,0.014,0.066,0.802
3988,0.023,0.044,0.833
3989,0.029,0.021,0.883
3990,0.033,0.003,0.944
3991,0.037,-0.003,1.008
3992,0.043,0.007,1.062
3993,0.052,0.031,1.098
3994,0.062,0.063,1.108
3995,0.068,0.096,1.095
3996,0.065,0.123,1.062
3997,0.052,0.139,1.019
3998,0.029,0.14,0.971
3999,0.002,0.125,0.925
4000,-0.022,0.101,0.885
4001,-0.033,0.075,0.855
4002,-0.025,0.054,0.837
4003,0.002,0.047,0.831
4004,0.044,0.054,0.836
4005,0.091,0.072,0.847
4006,0.129,0.095,0.859
4007,0.149,0.113,0.87
4008,0.146,0.121,0.875
4009,0.122,0.118,0.873
4010,0.084,0.107,0.864
4011,0.039,0.092,0.852
4012,-0.003,0.077,0.842
4013,-0.038,0.067,0.844
4014,-0.063,0.06,0.861
4015,-0.078,0.057,0.896
4016,-0.083,0.055,0.943
4017,-0.077,0.053,0.994
4018,-0.061,0.05,1.04
4019,-0.036,0.045,1.073
4020,-0.005,0.039,1.09
4021,0.027,0.033,1.089
4022,0.053,0.029,1.069
4023,0.068,0.029,1.032
4024,0.069,0.034,0.985
4025,0.058,0.043,0.935
4026,0.039,0.056,0.89
4027,0.018,0.071,0.86
4028,0,0.089,0.851
4029,-0.015,0.105,0.864
4030,-0.026,0.115,0.898
4031,-0.033,0.117,0.944
4032,-0.035,0.106,0.995
4033,-0.029,0.086,1.039
4034,-0.012,0.06,1.068
4035,0.015,0.037,1.077
4036,0.049,0.02,1.064
4037,0.083,0.013,1.032
4038,0.114,0.015,0.987
4039,0.138,0.022,0.935
4040,0.151,0.032,0.881
4041,0.149,0.04,0.834
4042,0.131,0.044,0.798
4043,0.096,0.046,0.781
4044,0.05,0.048,0.785
4045,0.001,0.05,0.815
4046,-0.04,0.055,0.867
4047,-0.067,0.064,0.936
4048,-0.077,0.076,1.011
4049,-0.069,0.087,1.082
4050,-0.047,0.092,1.141
4051,-0.018,0.086,1.178
4052,0.012,0.068,1.187
4053,0.039,0.045,1.167
4054,0.059,0.025,1.123
4055,0.073,0.016,1.065
4056,0.08,0.02,1.008
4057,0.081,0.034,0.965
4058,0.074,0.053,0.945
4059,0.059,0.071,0.949
4060,0.038,0.085,0.973
4061,0.015,0.093,1.009
4062,-0.004,0.09,1.046
4063,-0.014,0.076,1.076
4064,-0.011,0.05,1.09
4065,0.003,0.019,1.086
4066,0.026,-0.007,1.067
4067,0.052,-0.018,1.034
4068,0.078,-0.009,0.995
4069,0.1,0.02,0.955
4070,0.117,0.061,0.92
4071,0.125,0.105,0.894
4072,0.121,0.14,0.88
4073,0.104,0.159,0.878
4074,0.073,0.158,0.888
4075,0.034,0.138,0.902
4076,-0.004,0.107,0.917
4077,-0.03,0.072,0.929
4078,-0.034,0.039,0.937
4079,-0.012,0.012,0.949
4080,0.034,-0.006,0.969
4081,0.094,-0.014,1.003
4082,0.152,-0.013,1.052
4083,0.193,-0.003,1.113
4084,0.21,0.01,1.179
4085,0.201,0.024,1.242
4086,0.174,0.035,1.291
4087,0.138,0.045,1.318
4088,0.1,0.06,1.32
4089,0.063,0.084,1.296
4090,0.028,0.116,1.252
4091,-0.003,0.15,1.192
4092,-0.025,0.175,1.118
4093,-0.035,0.183,1.035
4094,-0.03,0.172,0.947
4095,-0.011,0.144,0.867
4096,0.017,0.109,0.809
4097,0.047,0.072,0.785
4098,0.069,0.042,0.798
4099,0.078,0.022,0.845
4100,0.077,0.015,0.913
4101,0.071,0.021,0.987
4102,0.065,0.036,1.055
4103,0.061,0.054,1.106
4104,0.053,0.066,1.133
4105,0.035,0.067,1.131
4106,0.005,0.056,1.097
4107,-0.034,0.038,1.031
4108,-0.071,0.024,0.938
4109,-0.097,0.018,0.83
4110,-0.103,0.021,0.719
4111,-0.087,0.031,0.622
4112,-0.056,0.04,0.551
4113,-0.019,0.045,0.517
4114,0.011,0.045,0.524
4115,0.026,0.043,0.57
4116,0.025,0.042,0.645
4117,0.013,0.045,0.735
4118,-0.002,0.049,0.826
4119,-0.015,0.052,0.906
4120,-0.026,0.052,0.967
4121,-0.037,0.047,1.003
4122,-0.053,0.042,1.011
4123,-0.075,0.039,0.99
4124,-0.098,0.037,0.944
4125,-0.114,0.033,0.877
4126,-0.116,0.025,0.797
4127,-0.1,0.012,0.716
4128,-0.068,-0.003,0.643
4129,-0.028,-0.013,0.591
4130,0.006,-0.016,0.568
4131,0.021,-0.014,0.582
4132,0.009,-0.009,0.631
4133,-0.023,-0.004,0.707
4134,-0.063,0,0.793
4135,-0.094,0.008,0.873
4136,-0.102,0.022,0.931
4137,-0.085,0.042,0.957
4138,-0.049,0.063,0.95
4139,-0.009,0.078,0.911
4140,0.021,0.082,0.848
4141,0.032,0.071,0.771
4142,0.026,0.05,0.69
4143,0.011,0.025,0.618
4144,0,0.003,0.569
4145,0.001,-0.01,0.553
4146,0.015,-0.015,0.581
4147,0.037,-0.014,0.656
4148,0.061,-0.012,0.776
4149,0.077,-0.012,0.934
4150,0.084,-0.015,1.118
4151,0.083,-0.017,1.31
4152,0.083,-0.015,1.491
4153,0.093,-0.005,1.64
4154,0.119,0.014,1.738
4155,0.16,0.038,1.771
4156,0.209,0.061,1.737
4157,0.257,0.077,1.643
4158,0.288,0.08,1.509
4159,0.295,0.071,1.359
4160,0.275,0.053,1.215
4161,0.233,0.033,1.093
4162,0.184,0.02,1.005
4163,0.143,0.016,0.957
4164,0.124,0.019,0.955
4165,0.133,0.026,0.999
4166,0.162,0.033,1.085
4167,0.198,0.038,1.201
4168,0.227,0.041,1.327
4169,0.244,0.045,1.439
4170,0.248,0.052,1.515
4171,0.245,0.063,1.537
4172,0.239,0.074,1.5
4173,0.233,0.082,1.41
4174,0.222,0.081,1.286
4175,0.2,0.074,1.145
4176,0.161,0.063,1.005
4177,0.104,0.059,0.875
4178,0.035,0.069,0.761
4179,-0.035,0.096,0.667
4180,-0.098,0.135,0.603
4181,-0.148,0.171,0.579
4182,-0.186,0.19,0.604
4183,-0.215,0.185,0.679
4184,-0.234,0.164,0.792
4185,-0.244,0.14,0.925
4186,-0.236,0.126,1.053
4187,-0.208,0.125,1.147
4188,-0.157,0.133,1.186
4189,-0.091,0.141,1.16
4190,-0.024,0.144,1.069
4191,0.023,0.141,0.926
4192,0.039,0.134,0.752
4193,0.019,0.126,0.572
4194,-0.025,0.116,0.409
4195,-0.077,0.102,0.283
4196,-0.118,0.082,0.208
4197,-0.136,0.054,0.191
4198,-0.126,0.022,0.228
4199,-0.096,-0.009,0.312
4200,-0.054,-0.032,0.426
4201,-0.01,-0.046,0.556
4202,0.035,-0.051,0.684
4203,0.076,-0.046,0.798
4204,0.114,-0.029,0.891
4205,0.145,-0.002,0.96
4206,0.164,0.028,1.004
4207,0.165,0.049,1.023
4208,0.145,0.05,1.016
4209,0.107,0.03,0.981
4210,0.065,-0.003,0.921
4211,0.032,-0.037,0.844
4212,0.022,-0.063,0.766
4213,0.034,-0.075,0.71
4214,0.058,-0.078,0.702
4215,0.077,-0.075,0.757
4216,0.081,-0.07,0.885
4217,0.069,-0.059,1.081
4218,0.054,-0.039,1.324
4219,0.056,-0.008,1.582
4220,0.091,0.03,1.816
4221,0.163,0.065,1.987
4222,0.257,0.085,2.066
4223,0.353,0.083,2.043
4224,0.419,0.069,1.931
4225,0.431,0.06,1.76
4226,0.379,0.066,1.563
4227,0.279,0.086,1.365
4228,0.161,0.114,1.191
4229,0.058,0.14,1.058
4230,-0.006,0.153,0.973
4231,-0.028,0.148,0.94
4232,-0.019,0.13,0.953
4233,0.004,0.11,1.001
4234,0.025,0.097,1.065
4235,0.039,0.096,1.13
4236,0.049,0.108,1.183
4237,0.056,0.129,1.216
4238,0.06,0.15,1.225
4239,0.061,0.165,1.21
4240,0.054,0.172,1.176
4241,0.038,0.172,1.13
4242,0.01,0.171,1.081
4243,-0.024,0.171,1.041
4244,-0.058,0.171,1.019
4245,-0.08,0.17,1.019
4246,-0.085,0.166,1.041
4247,-0.07,0.154,1.082
4248,-0.037,0.132,1.135
4249,0.012,0.102,1.194
4250,0.076,0.068,1.247
4251,0.151,0.035,1.285
4252,0.231,0.005,1.3
4253,0.308,-0.021,1.289
4254,0.37,-0.043,1.254
4255,0.409,-0.061,1.198
4256,0.42,-0.072,1.13
4257,0.402,-0.069,1.056
4258,0.357,-0.049,0.985
4259,0.292,-0.009,0.918
4260,0.216,0.045,0.857
4261,0.14,0.1,0.801
4262,0.071,0.144,0.746
4263,0.011,0.17,0.694
4264,-0.043,0.176,0.649
4265,-0.097,0.167,0.617
4266,-0.151,0.148,0.601
4267,-0.201,0.124,0.607
4268,-0.235,0.099,0.633
4269,-0.242,0.07,0.678
4270,-0.218,0.038,0.735
4271,-0.169,0,0.8
4272,-0.104,-0.04,0.867
4273,-0.036,-0.076,0.932
4274,0.024,-0.096,0.995
4275,0.066,-0.095,1.055
4276,0.086,-0.072,1.115
4277,0.086,-0.033,1.177
4278,0.074,0.011,1.24
4279,0.056,0.052,1.303
4280,0.038,0.082,1.359
4281,0.022,0.1,1.4
4282,0.011,0.105,1.418
4283,0.009,0.099,1.408
4284,0.02,0.081,1.367
4285,0.041,0.052,1.296
4286,0.066,0.018,1.201
4287,0.081,-0.014,1.092
4288,0.081,-0.04,0.985
4289,0.066,-0.058,0.887
4290,0.041,-0.069,0.809
4291,0.015,-0.071,0.756
4292,-0.005,-0.063,0.732
4293,-0.017,-0.041,0.74
4294,-0.019,-0.003,0.776
4295,-0.013,0.043,0.834
4296,0.001,0.087,0.902
4297,0.02,0.115,0.97
4298,0.043,0.12,1.024
4299,0.068,0.104,1.058
4300,0.091,0.077,1.068
4301,0.11,0.05,1.054
4302,0.124,0.033,1.026
4303,0.135,0.029,0.991
4304,0.142,0.035,0.961
4305,0.144,0.046,0.949
4306,0.137,0.054,0.963
4307,0.12,0.053,1.012
4308,0.097,0.041,1.097
4309,0.074,0.024,1.208
4310,0.061,0.006,1.328
4311,0.066,-0.004,1.436
4312,0.096,-0.003,1.511
4313,0.154,0.009,1.535
4314,0.236,0.025,1.498
4315,0.332,0.037,1.402
4316,0.428,0.037,1.26
4317,0.505,0.022,1.094
4318,0.548,-0.006,0.93
4319,0.547,-0.037,0.79
4320,0.502,-0.061,0.696
4321,0.422,-0.07,0.659
4322,0.325,-0.062,0.685
4323,0.229,-0.038,0.77
4324,0.151,-0.006,0.898
4325,0.1,0.023,1.049
4326,0.076,0.042,1.2
4327,0.073,0.048,1.328
4328,0.082,0.042,1.417
4329,0.096,0.026,1.455
4330,0.11,0.006,1.435
4331,0.124,-0.012,1.357
4332,0.135,-0.024,1.234
4333,0.145,-0.03,1.084
4334,0.149,-0.028,0.928
4335,0.145,-0.023,0.787
4336,0.128,-0.015,0.682
4337,0.096,-0.005,0.629
4338,0.052,0.003,0.638
4339,0.001,0.009,0.712
4340,-0.05,0.011,0.838
4341,-0.092,0.008,0.999
4342,-0.12,0.001,1.167
4343,-0.129,-0.006,1.317
4344,-0.118,-0.008,1.428
4345,-0.092,-0.003,1.484
4346,-0.057,0.009,1.478
4347,-0.026,0.021,1.417
4348,-0.01,0.031,1.317
4349,-0.017,0.035,1.198
4350,-0.046,0.035,1.079
4351,-0.086,0.033,0.968
4352,-0.127,0.03,0.87
4353,-0.154,0.029,0.789
4354,-0.163,0.03,0.725
4355,-0.153,0.033,0.682
4356,-0.131,0.039,0.661
4357,-0.105,0.046,0.664
4358,-0.078,0.054,0.692
4359,-0.054,0.061,0.741
4360,-0.032,0.065,0.805
4361,-0.01,0.063,0.875
4362,0.011,0.057,0.946
4363,0.031,0.05,1.011
4364,0.049,0.046,1.069
4365,0.065,0.047,1.115
4366,0.08,0.053,1.146
4367,0.097,0.06,1.156
4368,0.12,0.064,1.141
4369,0.149,0.061,1.098
4370,0.183,0.055,1.031
4371,0.217,0.045,0.951
4372,0.245,0.036,0.869
4373,0.264,0.026,0.8
4374,0.27,0.014,0.756
4375,0.263,-0.002,0.749
4376,0.245,-0.02,0.782
4377,0.22,-0.038,0.851
4378,0.194,-0.05,0.947
4379,0.174,-0.05,1.054
4380,0.164,-0.036,1.157
4381,0.162,-0.013,1.241
4382,0.168,0.012,1.294
4383,0.175,0.031,1.309
4384,0.177,0.037,1.283
4385,0.173,0.03,1.219
4386,0.159,0.013,1.125
4387,0.136,-0.006,1.016
4388,0.104,-0.019,0.909
4389,0.061,-0.024,0.817
4390,0.012,-0.019,0.755
4391,-0.039,-0.008,0.73
4392,-0.085,0.003,0.744
4393,-0.117,0.01,0.793
4394,-0.128,0.011,0.867
4395,-0.114,0.008,0.952
4396,-0.076,0.005,1.033
4397,-0.019,0.003,1.101
4398,0.046,0.005,1.145
4399,0.108,0.009,1.161
4400,0.158,0.017,1.147
4401,0.186,0.028,1.107
4402,0.19,0.041,1.05
4403,0.17,0.051,0.988
4404,0.135,0.054,0.934
4405,0.093,0.051,0.9
4406,0.054,0.041,0.894
4407,0.024,0.028,0.92
4408,0.006,0.017,0.97
4409,0,0.014,1.035
4410,0.007,0.021,1.101
4411,0.023,0.036,1.154
4412,0.047,0.053,1.183
4413,0.072,0.065,1.179
4414,0.096,0.066,1.138
4415,0.115,0.054,1.063
4416,0.126,0.036,0.96
4417,0.129,0.019,0.84
4418,0.124,0.011,0.718
4419,0.113,0.014,0.611
4420,0.098,0.028,0.534
4421,0.08,0.049,0.498
4422,0.059,0.071,0.513
4423,0.036,0.09,0.579
4424,0.014,0.104,0.689
4425,-0.003,0.112,0.832
4426,-0.009,0.113,0.985
4427,0,0.106,1.128
4428,0.025,0.089,1.24
4429,0.061,0.061,1.307
4430,0.102,0.025,1.323
4431,0.14,-0.014,1.288
4432,0.171,-0.05,1.212
4433,0.191,-0.076,1.113
4434,0.201,-0.089,1.01
4435,0.201,-0.089,0.922
4436,0.195,-0.079,0.865
4437,0.182,-0.062,0.845
4438,0.163,-0.042,0.859
4439,0.14,-0.021,0.896
4440,0.116,0.003,0.946
4441,0.095,0.031,0.993
4442,0.077,0.064,1.03
4443,0.063,0.096,1.049
4444,0.051,0.118,1.048
4445,0.04,0.12,1.028
4446,0.03,0.099,0.994
4447,0.025,0.059,0.952
4448,0.026,0.009,0.913
4449,0.035,-0.035,0.884
4450,0.053,-0.064,0.875
4451,0.075,-0.073,0.891
4452,0.095,-0.065,0.932
4453,0.109,-0.047,0.99
4454,0.113,-0.026,1.056
4455,0.106,-0.007,1.118
4456,0.092,0.006,1.163
4457,0.076,0.016,1.185
4458,0.063,0.022,1.179
4459,0.059,0.024,1.146
4460,0.066,0.022,1.091
4461,0.079,0.016,1.025
4462,0.096,0.008,0.96
4463,0.109,0.001,0.907
4464,0.117,-0.004,0.877
4465,0.118,-0.007,0.875
4466,0.112,-0.008,0.902
4467,0.102,-0.009,0.954
4468,0.09,-0.01,1.019
4469,0.078,-0.01,1.085
4470,0.07,-0.007,1.136
4471,0.068,0,1.164
4472,0.072,0.013,1.162
4473,0.081,0.029,1.13
4474,0.092,0.045,1.075
4475,0.103,0.057,1.004
4476,0.107,0.059,0.93
4477,0.101,0.049,0.862
4478,0.085,0.029,0.811
4479,0.063,0.005,0.784
4480,0.04,-0.016,0.783
4481,0.025,-0.027,0.809
4482,0.023,-0.026,0.86
4483,0.035,-0.014,0.931
4484,0.056,0.002,1.012
4485,0.08,0.02,1.09
4486,0.1,0.035,1.155
4487,0.112,0.047,1.197
4488,0.112,0.055,1.21
4489,0.1,0.057,1.191
4490,0.08,0.052,1.144
4491,0.058,0.042,1.076
4492,0.038,0.027,0.998
4493,0.028,0.011,0.923
4494,0.029,-0.003,0.86
4495,0.043,-0.012,0.82
4496,0.066,-0.018,0.81
4497,0.094,-0.019,0.83
4498,0.117,-0.018,0.878
4499,0.133,-0.014,0.944
4500,0.138,-0.007,1.015
4501,0.133,0.001,1.08
4502,0.123,0.011,1.127
4503,0.111,0.023,1.151
4504,0.098,0.036,1.15
4505,0.087,0.048,1.125
4506,0.078,0.058,1.081
4507,0.072,0.063,1.026
4508,0.07,0.062,0.968
4509,0.073,0.052,0.915
4510,0.081,0.036,0.873
4511,0.093,0.015,0.849
4512,0.108,-0.005,0.846
4513,0.124,-0.021,0.867
4514,0.136,-0.031,0.91
4515,0.143,-0.032,0.968
4516,0.143,-0.024,1.034
4517,0.139,-0.011,1.096
4518,0.133,0.003,1.146
4519,0.128,0.017,1.176
4520,0.124,0.025,1.181
4521,0.118,0.029,1.161
4522,0.11,0.029,1.119
4523,0.099,0.027,1.064
4524,0.085,0.023,1.003
4525,0.07,0.018,0.947
4526,0.055,0.013,0.901
4527,0.044,0.007,0.87
4528,0.039,0.002,0.854
4529,0.043,-0.002,0.854
4530,0.054,-0.006,0.866
4531,0.071,-0.01,0.885
4532,0.088,-0.014,0.906
4533,0.102,-0.017,0.923
4534,0.108,-0.016,0.935
4535,0.106,-0.009,0.937
4536,0.097,0.004,0.931
4537,0.083,0.02,0.915
4538,0.068,0.036,0.892
4539,0.053,0.046,0.866
4540,0.04,0.05,0.843
4541,0.03,0.045,0.825
4542,0.025,0.033,0.818
4543,0.027,0.019,0.824
4544,0.038,0.007,0.844
4545,0.055,0.001,0.88
4546,0.076,0.001,0.929
4547,0.097,0.008,0.986
4548,0.114,0.017,1.045
4549,0.127,0.025,1.098
4550,0.134,0.029,1.137
4551,0.137,0.028,1.155
4552,0.135,0.024,1.149
4553,0.131,0.017,1.12
4554,0.123,0.01,1.071
4555,0.111,0.004,1.009
4556,0.095,-0.001,0.942
4557,0.077,-0.004,0.878
4558,0.059,-0.004,0.827
4559,0.046,0,0.794
4560,0.039,0.006,0.784
4561,0.037,0.013,0.798
4562,0.04,0.018,0.834
4563,0.048,0.022,0.886
4564,0.059,0.023,0.946
4565,0.074,0.024,1.005
4566,0.093,0.026,1.055
4567,0.114,0.031,1.092
4568,0.135,0.037,1.113
4569,0.152,0.043,1.118
4570,0.162,0.047,1.109
4571,0.163,0.046,1.09
4572,0.156,0.036,1.065
4573,0.145,0.019,1.04
4574,0.135,-0.004,1.021
4575,0.13,-0.026,1.014
4576,0.13,-0.042,1.021
4577,0.135,-0.047,1.041
4578,0.141,-0.041,1.071
4579,0.147,-0.026,1.103
4580,0.15,-0.008,1.13
4581,0.15,0.008,1.144
4582,0.146,0.018,1.144
4583,0.138,0.023,1.128
4584,0.126,0.024,1.1
4585,0.112,0.023,1.063
4586,0.097,0.023,1.022
4587,0.084,0.023,0.983
4588,0.074,0.024,0.952
4589,0.07,0.024,0.932
4590,0.071,0.023,0.926
4591,0.08,0.02,0.933
4592,0.094,0.017,0.949
4593,0.114,0.013,0.972
4594,0.135,0.009,0.996
4595,0.154,0.006,1.018
4596,0.17,0.002,1.034
4597,0.18,-0.001,1.044
4598,0.182,-0.001,1.045
4599,0.176,0.002,1.04
4600,0.163,0.01,1.03
4601,0.147,0.022,1.016
4602,0.13,0.035,1.001
4603,0.116,0.043,0.988
4604,0.105,0.046,0.979
4605,0.098,0.04,0.977
4606,0.094,0.029,0.981
4607,0.093,0.017,0.991
4608,0.096,0.006,1.006
4609,0.103,0,1.023
4610,0.112,0.002,1.039
4611,0.122,0.009,1.052
4612,0.13,0.019,1.057
4613,0.135,0.03,1.054
4614,0.136,0.04,1.041
4615,0.134,0.048,1.018
4616,0.128,0.055,0.988
4617,0.12,0.06,0.954
4618,0.109,0.065,0.921
4619,0.097,0.068,0.894
4620,0.085,0.068,0.876
4621,0.074,0.066,0.87
4622,0.068,0.062,0.877
4623,0.069,0.057,0.895
4624,0.081,0.054,0.923
4625,0.1,0.052,0.955
4626,0.123,0.051,0.987
4627,0.145,0.051,1.014
4628,0.161,0.052,1.035
4629,0.167,0.054,1.047
4630,0.163,0.057,1.048
4631,0.151,0.061,1.04
4632,0.135,0.066,1.024
4633,0.12,0.072,1.002
4634,0.109,0.077,0.98
4635,0.102,0.079,0.96
4636,0.097,0.077,0.948
4637,0.094,0.067,0.943
4638,0.094,0.052,0.947
4639,0.096,0.033,0.958
4640,0.104,0.016,0.975
4641,0.115,0.003,0.997
4642,0.127,-0.003,1.02
4643,0.137,-0.001,1.041
4644,0.144,0.006,1.056
4645,0.145,0.018,1.06
4646,0.142,0.031,1.054
4647,0.134,0.042,1.036
4648,0.124,0.049,1.011
4649,0.113,0.049,0.981
4650,0.102,0.046,0.953
4651,0.093,0.041,0.93
4652,0.087,0.035,0.918
4653,0.086,0.029,0.918
4654,0.089,0.022,0.932
4655,0.098,0.016,0.957
4656,0.111,0.008,0.987
4657,0.127,0.001,1.019
4658,0.142,-0.005,1.045
4659,0.153,-0.01,1.063
4660,0.16,-0.011,1.071
4661,0.16,-0.007,1.066
4662,0.154,0.001,1.049
4663,0.144,0.013,1.022
4664,0.129,0.028,0.991
4665,0.111,0.043,0.96
4666,0.091,0.055,0.935
4667,0.073,0.059,0.916
4668,0.057,0.054,0.908
4669,0.048,0.04,0.91
4670,0.047,0.02,0.923
4671,0.056,-0.001,0.946
4672,0.073,-0.018,0.975
4673,0.097,-0.026,1.007
4674,0.124,-0.024,1.038
4675,0.15,-0.013,1.065
4676,0.17,0.002,1.083
4677,0.18,0.019,1.091
4678,0.18,0.032,1.087
4679,0.168,0.04,1.069
4680,0.151,0.043,1.039
4681,0.133,0.043,0.999
4682,0.117,0.041,0.954
4683,0.107,0.038,0.91
4684,0.103,0.035,0.874
4685,0.103,0.033,0.851
4686,0.107,0.031,0.845
4687,0.112,0.028,0.856
4688,0.116,0.024,0.884
4689,0.119,0.021,0.925
4690,0.119,0.018,0.97
4691,0.118,0.016,1.011
4692,0.117,0.017,1.04
4693,0.116,0.023,1.051
4694,0.115,0.036,1.046
4695,0.114,0.054,1.023
4696,0.111,0.076,0.989
4697,0.107,0.094,0.946
4698,0.1,0.106,0.902
4699,0.092,0.108,0.863
4700,0.083,0.098,0.835
4701,0.074,0.08,0.822
4702,0.067,0.056,0.827
4703,0.063,0.033,0.852
4704,0.066,0.014,0.893
4705,0.076,0.003,0.946
4706,0.095,0,1.004
4707,0.121,0.006,1.06
4708,0.152,0.017,1.107
4709,0.18,0.029,1.14
4710,0.199,0.039,1.154
4711,0.205,0.045,1.148
4712,0.197,0.047,1.123
4713,0.177,0.047,1.082
4714,0.153,0.044,1.031
4715,0.13,0.04,0.979
4716,0.116,0.035,0.935
4717,0.11,0.03,0.906
4718,0.112,0.025,0.899
4719,0.12,0.02,0.913
4720,0.131,0.015,0.947
4721,0.144,0.012,0.994
4722,0.157,0.01,1.042
4723,0.17,0.011,1.084
4724,0.182,0.013,1.112
4725,0.191,0.018,1.123
4726,0.193,0.024,1.117
4727,0.185,0.034,1.098
4728,0.166,0.046,1.071
4729,0.139,0.057,1.04
4730,0.108,0.065,1.011
4731,0.08,0.066,0.988
4732,0.06,0.058,0.974
4733,0.05,0.04,0.971
4734,0.051,0.017,0.982
4735,0.061,-0.006,1.006
4736,0.075,-0.024,1.04
4737,0.093,-0.035,1.08
4738,0.112,-0.038,1.119
4739,0.131,-0.032,1.151
4740,0.148,-0.02,1.172
4741,0.16,-0.005,1.178
4742,0.165,0.011,1.168
4743,0.161,0.024,1.142
4744,0.149,0.033,1.103
4745,0.132,0.037,1.055
4746,0.114,0.038,1.005
4747,0.1,0.035,0.959
4748,0.093,0.03,0.926
4749,0.093,0.024,0.913
4750,0.096,0.017,0.924
4751,0.102,0.007,0.958
4752,0.109,-0.004,1.011
4753,0.118,-0.015,1.073
4754,0.131,-0.024,1.134
4755,0.149,-0.031,1.184
4756,0.171,-0.034,1.214
4757,0.192,-0.031,1.222
4758,0.208,-0.021,1.208
4759,0.212,-0.005,1.175
4760,0.204,0.015,1.129
4761,0.183,0.035,1.078
4762,0.155,0.05,1.029
4763,0.123,0.06,0.987
4764,0.091,0.062,0.956
4765,0.064,0.056,0.938
4766,0.045,0.045,0.936
4767,0.036,0.032,0.949
4768,0.04,0.019,0.976
4769,0.056,0.01,1.013
4770,0.082,0.005,1.052
4771,0.114,0.005,1.09
4772,0.146,0.006,1.12
4773,0.174,0.009,1.139
4774,0.193,0.012,1.143
4775,0.202,0.014,1.131
4776,0.201,0.016,1.104
4777,0.191,0.018,1.066
4778,0.176,0.02,1.023
4779,0.159,0.024,0.982
4780,0.144,0.029,0.95
4781,0.133,0.036,0.933
4782,0.126,0.041,0.933
4783,0.126,0.045,0.95
4784,0.131,0.044,0.978
4785,0.14,0.039,1.01
4786,0.151,0.03,1.04
4787,0.159,0.021,1.06
4788,0.164,0.014,1.065
4789,0.164,0.012,1.052
4790,0.161,0.016,1.024
4791,0.156,0.025,0.983
4792,0.15,0.04,0.938
4793,0.142,0.058,0.896
4794,0.131,0.074,0.864
4795,0.119,0.086,0.846
4796,0.103,0.09,0.843
4797,0.088,0.084,0.856
4798,0.076,0.069,0.88
4799,0.069,0.049,0.913
4800,0.07,0.029,0.949
4801,0.079,0.016,0.985
4802,0.094,0.012,1.017
4803,0.112,0.017,1.04
4804,0.13,0.029,1.052
4805,0.145,0.043,1.051
4806,0.155,0.056,1.036
4807,0.159,0.065,1.01
4808,0.155,0.069,0.973
4809,0.145,0.068,0.932
4810,0.129,0.064,0.891
4811,0.113,0.059,0.855
4812,0.098,0.053,0.83
4813,0.087,0.046,0.818
4814,0.084,0.039,0.822
4815,0.088,0.03,0.841
4816,0.099,0.021,0.874
4817,0.114,0.013,0.916
4818,0.132,0.006,0.96
4819,0.151,0.001,1.002
4820,0.169,-0.001,1.036
4821,0.184,0.002,1.056
4822,0.192,0.01,1.059
4823,0.192,0.024,1.046
4824,0.184,0.044,1.019
4825,0.168,0.065,0.982
4826,0.147,0.083,0.942
4827,0.124,0.093,0.905
4828,0.102,0.092,0.876
4829,0.082,0.081,0.86
4830,0.065,0.06,0.86
4831,0.055,0.035,0.875
4832,0.052,0.01,0.904
4833,0.057,-0.008,0.942
4834,0.071,-0.016,0.986
4835,0.092,-0.015,1.03
4836,0.115,-0.007,1.066
4837,0.135,0.003,1.092
4838,0.147,0.012,1.101
4839,0.148,0.018,1.093
4840,0.14,0.02,1.068
4841,0.126,0.019,1.029
4842,0.109,0.017,0.984
4843,0.094,0.012,0.941
4844,0.082,0.007,0.91
4845,0.077,0.002,0.895
4846,0.078,-0.004,0.901
4847,0.085,-0.009,0.926
4848,0.098,-0.011,0.966
4849,0.116,-0.01,1.013
4850,0.137,-0.006,1.058
4851,0.158,0,1.092
4852,0.175,0.005,1.107
4853,0.187,0.012,1.1
4854,0.191,0.02,1.071
4855,0.185,0.031,1.027
4856,0.17,0.045,0.972
4857,0.147,0.059,0.916
4858,0.117,0.071,0.869
4859,0.085,0.075,0.836
4860,0.056,0.07,0.823
4861,0.035,0.056,0.828
4862,0.025,0.036,0.853
4863,0.028,0.016,0.896
4864,0.039,0,0.952
4865,0.057,-0.008,1.014
4866,0.076,-0.007,1.075
4867,0.095,-0.001,1.126
4868,0.112,0.009,1.158
4869,0.126,0.02,1.165
4870,0.136,0.029,1.146
4871,0.141,0.036,1.102
4872,0.137,0.042,1.04
4873,0.127,0.045,0.97
4874,0.11,0.048,0.904
4875,0.09,0.048,0.849
4876,0.071,0.048,0.815
4877,0.058,0.047,0.806
4878,0.055,0.046,0.823
4879,0.065,0.044,0.865
4880,0.084,0.042,0.925
4881,0.109,0.038,0.992
4882,0.134,0.032,1.055
4883,0.157,0.024,1.103
4884,0.175,0.017,1.126
4885,0.185,0.014,1.119
4886,0.187,0.017,1.086
4887,0.18,0.028,1.032
4888,0.164,0.042,0.967
4889,0.142,0.058,0.902
4890,0.115,0.07,0.848
4891,0.088,0.074,0.811
4892,0.065,0.069,0.798
4893,0.048,0.057,0.812
4894,0.039,0.04,0.853
4895,0.038,0.025,0.916
4896,0.045,0.014,0.993
4897,0.058,0.009,1.074
4898,0.078,0.01,1.147
4899,0.102,0.015,1.202
4900,0.127,0.021,1.231
4901,0.148,0.027,1.23
4902,0.16,0.03,1.2
4903,0.162,0.03,1.146
4904,0.152,0.029,1.076
4905,0.134,0.027,1
4906,0.114,0.027,0.928
4907,0.096,0.029,0.873
4908,0.086,0.032,0.84
4909,0.084,0.034,0.837
4910,0.09,0.035,0.865
4911,0.102,0.036,0.918
4912,0.116,0.038,0.988
4913,0.131,0.04,1.062
4914,0.147,0.041,1.126
4915,0.161,0.041,1.168
4916,0.174,0.042,1.18
4917,0.184,0.047,1.16
4918,0.189,0.057,1.112
4919,0.187,0.07,1.046
4920,0.176,0.083,0.972
4921,0.158,0.093,0.901
4922,0.132,0.096,0.843
4923,0.103,0.09,0.804
4924,0.076,0.076,0.786
4925,0.055,0.057,0.793
4926,0.043,0.036,0.821
4927,0.042,0.019,0.866
4928,0.052,0.01,0.921
4929,0.069,0.011,0.98
4930,0.089,0.021,1.033
4931,0.109,0.037,1.074
4932,0.123,0.056,1.098
4933,0.129,0.073,1.099
4934,0.126,0.086,1.076
4935,0.115,0.093,1.032
4936,0.098,0.095,0.975
4937,0.08,0.094,0.913
4938,0.063,0.091,0.858
4939,0.05,0.089,0.82
4940,0.042,0.085,0.807
4941,0.04,0.079,0.82
4942,0.047,0.069,0.859
4943,0.063,0.057,0.916
4944,0.088,0.042,0.982
4945,0.119,0.025,1.047
4946,0.157,0.01,1.099
4947,0.195,0.001,1.132
4948,0.23,0,1.139
4949,0.253,0.01,1.12
4950,0.261,0.03,1.079
4951,0.251,0.056,1.023
4952,0.224,0.082,0.96
4953,0.183,0.103,0.899
4954,0.135,0.116,0.845
4955,0.088,0.118,0.805
4956,0.049,0.109,0.783
4957,0.024,0.094,0.78
4958,0.015,0.078,0.798
4959,0.022,0.066,0.834
4960,0.04,0.059,0.884
4961,0.065,0.058,0.941
4962,0.092,0.06,0.999
4963,0.119,0.062,1.05
4964,0.14,0.064,1.087
4965,0.155,0.064,1.106
4966,0.159,0.065,1.106
4967,0.152,0.066,1.089
4968,0.134,0.069,1.06
4969,0.108,0.072,1.026
4970,0.081,0.074,0.994
4971,0.058,0.072,0.969
4972,0.044,0.067,0.958
4973,0.04,0.059,0.962
4974,0.046,0.049,0.98
4975,0.058,0.04,1.009
4976,0.076,0.032,1.042
4977,0.097,0.026,1.07
4978,0.119,0.023,1.085
4979,0.139,0.022,1.084
4980,0.156,0.026,1.065
4981,0.168,0.037,1.031
4982,0.172,0.053,0.986
4983,0.167,0.071,0.936
4984,0.154,0.087,0.885
4985,0.136,0.099,0.84
4986,0.116,0.102,0.806
4987,0.097,0.095,0.786
4988,0.084,0.079,0.783
4989,0.078,0.058,0.799
4990,0.078,0.037,0.835
4991,0.085,0.022,0.888
4992,0.097,0.018,0.953
4993,0.114,0.023,1.023
4994,0.133,0.036,1.09
4995,0.153,0.05,1.144
4996,0.168,0.061,1.179
4997,0.176,0.065,1.189
4998,0.173,0.062,1.173
4999,0.159,0.053,1.135
5000,0.137,0.042,1.081
5001,0.11,0.033,1.021
5002,0.083,0.031,0.964
5003,0.061,0.035,0.919
5004,0.047,0.042,0.891
5005,0.042,0.048,0.881
5006,0.045,0.049,0.889
5007,0.055,0.043,0.91
5008,0.068,0.032,0.94
5009,0.082,0.021,0.97
5010,0.097,0.015,0.993
5011,0.112,0.018,1.004
5012,0.124,0.032,0.999
5013,0.134,0.052,0.979
5014,0.137,0.075,0.946
5015,0.133,0.094,0.905
5016,0.121,0.104,0.861
5017,0.103,0.103,0.821
5018,0.081,0.089,0.789
5019,0.06,0.067,0.772
5020,0.045,0.042,0.773
5021,0.039,0.022,0.792
5022,0.044,0.011,0.83
5023,0.058,0.011,0.884
5024,0.077,0.02,0.948
5025,0.096,0.034,1.015
5026,0.111,0.046,1.075
5027,0.118,0.052,1.12
5028,0.115,0.052,1.14
5029,0.105,0.048,1.131
5030,0.089,0.044,1.092
5031,0.071,0.044,1.03
5032,0.053,0.05,0.956
5033,0.036,0.058,0.882
5034,0.018,0.068,0.817
5035,0.001,0.074,0.772
5036,-0.014,0.075,0.75
5037,-0.024,0.07,0.753
5038,-0.025,0.061,0.777
5039,-0.017,0.05,0.816
